time,seconds_elapsed,z,y,x
1711073754937885200,0.04688525390625,0.08659856766462326,9.464858055114746,2.5650250911712646
1711073754956845000,0.065844970703125,0.15825702250003815,9.471609115600586,2.536522626876831
1711073754975805000,0.084804931640625,0.16661202907562256,9.481891632080078,2.497269630432129
1711073754994764800,0.103764892578125,0.14267376065254211,9.491706848144531,2.461205244064331
1711073755013724400,0.122724365234375,0.12916505336761475,9.5007963180542,2.4266388416290283
1711073755032684500,0.1416845703125,0.1316915601491928,9.50589656829834,2.4064438343048096
1711073755051644200,0.16064404296875,0.1355251520872116,9.506465911865234,2.4039807319641113
1711073755070604000,0.17960400390625,0.13045717775821686,9.506455421447754,2.404303789138794
1711073755089564000,0.19856396484375,0.11855170130729675,9.504704475402832,2.4118330478668213
1711073755108523800,0.217523681640625,0.10678664594888687,9.500961303710938,2.4270787239074707
1711073755127483600,0.236483642578125,0.0921519473195076,9.49619197845459,2.4462695121765137
1711073755146443500,0.255443603515625,0.0844680443406105,9.490959167480469,2.466768503189087
1711073755165403400,0.2744033203125,0.08515223860740662,9.486828804016113,2.482584238052368
1711073755184363300,0.29336328125,0.08581353724002838,9.484399795532227,2.491825819015503
1711073755203323100,0.3123232421875,0.08035033941268921,9.483358383178711,2.4959683418273926
1711073755222283000,0.331282958984375,0.07353107631206512,9.482995986938477,2.497551441192627
1711073755241243000,0.350242919921875,0.06636549532413483,9.48279094696045,2.4985296726226807
1711073755260202800,0.36920263671875,0.05857091024518013,9.481761932373047,2.5026278495788574
1711073755279162400,0.388162353515625,0.051484208554029465,9.478622436523438,2.5146429538726807
1711073755298122200,0.407122314453125,0.0500490628182888,9.474238395690918,2.5311439037323
1711073755317082000,0.42608203125,0.05441100895404816,9.46882152557373,2.5512452125549316
1711073755336042000,0.4450419921875,0.057420309633016586,9.46353530883789,2.570716142654419
1711073755355001900,0.464001953125,0.05665695667266846,9.45975112915039,2.584622621536255
1711073755373961700,0.482961669921875,0.05672619864344597,9.45715045928955,2.5941267013549805
1711073755392921600,0.501921630859375,0.056940171867609024,9.455537796020508,2.599989175796509
1711073755411881500,0.520881591796875,0.05666504427790642,9.454902648925781,2.602306365966797
1711073755430841300,0.53984130859375,0.06386792659759521,9.455026626586914,2.6016907691955566
1711073755449801200,0.55880126953125,0.07679887861013412,9.456274032592773,2.596799373626709
1711073755468761000,0.577760986328125,0.08676207810640335,9.459115028381348,2.5861191749572754
1711073755487720700,0.596720703125,0.09186631441116333,9.462554931640625,2.5733251571655273
1711073755506680600,0.6156806640625,0.09383951127529144,9.466080665588379,2.560251235961914
1711073755525640700,0.634640625,0.09449949115514755,9.468660354614258,2.550668954849243
1711073755544600300,0.653600341796875,0.09353099018335342,9.468899726867676,2.5498223304748535
1711073755563560200,0.672560302734375,0.09143571555614471,9.466867446899414,2.557429790496826
1711073755582520000,0.69152001953125,0.0866532251238823,9.463521003723145,2.569950580596924
1711073755601480000,0.71047998046875,0.08430531620979309,9.459551811218262,2.5846025943756104
1711073755620439800,0.729439697265625,0.08438795059919357,9.455524444580078,2.599294900894165
1711073755639399700,0.748399658203125,0.08641819655895233,9.451667785644531,2.6132142543792725
1711073755658359600,0.767359619140625,0.08880128711462021,9.448175430297852,2.625737190246582
1711073755677319400,0.7863193359375,0.09135990589857101,9.445069313049316,2.636796474456787
1711073755696279300,0.805279296875,0.0935363918542862,9.441878318786621,2.648128032684326
1711073755715239000,0.824239013671875,0.09578055888414383,9.438363075256348,2.660547971725464
1711073755734199000,0.843198974609375,0.09880804270505905,9.434947967529297,2.672525644302368
1711073755753159000,0.862158935546875,0.10438733547925949,9.431796073913574,2.683415412902832
1711073755772118500,0.881118408203125,0.1120082437992096,9.429433822631836,2.6913962364196777
1711073755791078400,0.900078369140625,0.1201813817024231,9.427922248840332,2.6963353157043457
1711073755810038300,0.919038330078125,0.12821483612060547,9.427627563476562,2.6969945430755615
1711073755828998100,0.937998046875,0.13409192860126495,9.427933692932129,2.695638418197632
1711073755847958000,0.9569580078125,0.1376591920852661,9.428853988647461,2.6922385692596436
1711073755866918000,0.97591796875,0.14021512866020203,9.429990768432617,2.6881227493286133
1711073755885877800,0.994877685546875,0.14167778193950653,9.431201934814453,2.6837964057922363
1711073755904837600,1.013837646484375,0.14045313000679016,9.432723045349121,2.6785080432891846
1711073755923797500,1.032797607421875,0.136204332113266,9.434467315673828,2.6725783348083496
1711073755942757400,1.05175732421875,0.13323156535625458,9.436330795288086,2.666135787963867
1711073755961717200,1.07071728515625,0.13289180397987366,9.438249588012695,2.6593539714813232
1711073755980677000,1.089677001953125,0.13295862078666687,9.440339088439941,2.651923656463623
1711073755999637000,1.108636962890625,0.13076572120189667,9.442553520202637,2.6441400051116943
1711073756018596900,1.127596923828125,0.12669828534126282,9.445245742797852,2.6347084045410156
1711073756037556700,1.146556640625,0.1221608817577362,9.447898864746094,2.62539005279541
1711073756056516600,1.1655166015625,0.1170320063829422,9.45036792755127,2.616718292236328
1711073756075476500,1.1844765625,0.10970735549926758,9.452731132507324,2.6084911823272705
1711073756094436400,1.203436279296875,0.10304906219244003,9.454575538635254,2.6020686626434326
1711073756113396200,1.222396240234375,0.09743177890777588,9.455681800842285,2.59826922416687
1711073756132356000,1.241356201171875,0.09297523647546768,9.456433296203613,2.5956947803497314
1711073756151316000,1.26031591796875,0.08906830102205276,9.456952095031738,2.5939388275146484
1711073756170275800,1.27927587890625,0.08580761402845383,9.457560539245605,2.591832399368286
1711073756189235700,1.298235595703125,0.08325977623462677,9.458014488220215,2.5902552604675293
1711073756208195600,1.317195556640625,0.0806637853384018,9.45831298828125,2.589242458343506
1711073756227155500,1.336155517578125,0.07832732051610947,9.458784103393555,2.5875957012176514
1711073756246115300,1.355115234375,0.07700236141681671,9.459697723388672,2.5842931270599365
1711073756265075200,1.3740751953125,0.07676755636930466,9.460705757141113,2.5806081295013428
1711073756284035000,1.39303515625,0.07601366192102432,9.4617338180542,2.5768585205078125
1711073756302995000,1.411994873046875,0.07571399211883545,9.462690353393555,2.5733518600463867
1711073756321954800,1.430954833984375,0.07590706646442413,9.46355152130127,2.570178985595703
1711073756340914700,1.449914794921875,0.07530289143323898,9.464064598083496,2.5683083534240723
1711073756359874600,1.46887451171875,0.07302788645029068,9.464583396911621,2.5664613246917725
1711073756378834400,1.48783447265625,0.070612333714962,9.465107917785645,2.5645923614501953
1711073756397794300,1.506794189453125,0.0681212991476059,9.465278625488281,2.5640270709991455
1711073756416754200,1.525754150390625,0.06404570490121841,9.465707778930664,2.5625462532043457
1711073756435714000,1.544714111328125,0.05849528685212135,9.465986251831055,2.5616564750671387
1711073756454674000,1.563673828125,0.05556537210941315,9.466300010681152,2.560558557510376
1711073756473633800,1.5826337890625,0.055985838174819946,9.466668128967285,2.5591909885406494
1711073756492594000,1.601593994140625,0.05740729719400406,9.467150688171387,2.557375192642212
1711073756511553800,1.6205537109375,0.05565566197037697,9.467721939086914,2.555290937423706
1711073756530513700,1.639513671875,0.050147656351327896,9.468491554260254,2.552553653717041
1711073756549473500,1.6584736328125,0.04437769949436188,9.468588829040527,2.5523054599761963
1711073756568433400,1.677433349609375,0.04076860845088959,9.467806816101074,2.555262327194214
1711073756587393300,1.696393310546875,0.03542676940560341,9.466903686523438,2.558684825897217
1711073756606353200,1.715353271484375,0.027274174615740776,9.466209411621094,2.561349868774414
1711073756625313000,1.73431298828125,0.019842779263854027,9.465865135192871,2.562696695327759
1711073756644273000,1.75327294921875,0.014476431533694267,9.465441703796387,2.5642919540405273
1711073756663232800,1.772232666015625,0.009641717188060284,9.464762687683105,2.566816568374634
1711073756682193000,1.79119287109375,0.004632533993571997,9.464164733886719,2.5690393447875977
1711073756701152800,1.81015283203125,-0.001867301412858069,9.46341323852539,2.571807861328125
1711073756720112600,1.829112548828125,-0.009337518364191055,9.463114738464355,2.5728862285614014
1711073756739072500,1.848072509765625,-0.016753196716308594,9.463276863098145,2.572258234024048
1711073756758032400,1.867032470703125,-0.022736629471182823,9.463946342468262,2.5697436332702637
1711073756776992300,1.8859921875,-0.027652062475681305,9.464622497558594,2.5672049522399902
1711073756795952000,1.9049521484375,-0.033624887466430664,9.465665817260742,2.5632829666137695
1711073756814912300,1.923912353515625,-0.040158167481422424,9.466841697692871,2.558842182159424
1711073756833872100,1.9428720703125,-0.044910840690135956,9.468000411987305,2.5544774532318115
1711073756852832000,1.96183203125,-0.048642128705978394,9.468606948852539,2.5521585941314697
1711073756871791900,1.9807919921875,-0.05237443745136261,9.46878719329834,2.5514111518859863
1711073756890751700,1.999751708984375,-0.05680699646472931,9.469154357910156,2.549956798553467
1711073756909712000,2.0187119140625,-0.061855148524045944,9.46989631652832,2.5470833778381348
1711073756928671700,2.037671630859375,-0.0687389075756073,9.471065521240234,2.5425543785095215
1711073756947631600,2.056631591796875,-0.0767366960644722,9.471968650817871,2.5389578342437744
1711073756966591700,2.075591796875,-0.08275440335273743,9.472634315490723,2.536281108856201
1711073756985551600,2.094551513671875,-0.0870690643787384,9.473286628723145,2.533700704574585
1711073757004511500,2.113511474609375,-0.09063134342432022,9.473670959472656,2.532139301300049
1711073757023471400,2.132471435546875,-0.09463625401258469,9.473758697509766,2.531662940979004
1711073757042431200,2.15143115234375,-0.098363496363163,9.474142074584961,2.530086040496826
1711073757061391000,2.17039111328125,-0.10128214210271835,9.474771499633789,2.5276153087615967
1711073757080351200,2.189351318359375,-0.1030006855726242,9.475353240966797,2.5253632068634033
1711073757099311000,2.20831103515625,-0.10488320142030716,9.476567268371582,2.520728349685669
1711073757118271000,2.22727099609375,-0.10744163393974304,9.477853775024414,2.515777111053467
1711073757137231000,2.246231201171875,-0.10962425172328949,9.479336738586426,2.5100927352905273
1711073757156191000,2.26519091796875,-0.11080151051282883,9.480911254882812,2.504082679748535
1711073757175150800,2.28415087890625,-0.11175566166639328,9.482661247253418,2.4974076747894287
1711073757194110700,2.30311083984375,-0.11477120965719223,9.48450756072998,2.4902455806732178
1711073757213070600,2.322070556640625,-0.12076368182897568,9.48603630065918,2.484133720397949
1711073757232030700,2.34103076171875,-0.12881694734096527,9.487077713012695,2.4797475337982178
1711073757250990600,2.359990478515625,-0.13682115077972412,9.487330436706543,2.4783549308776855
1711073757269950500,2.378950439453125,-0.14140759408473969,9.486949920654297,2.4795498847961426
1711073757288910600,2.39791064453125,-0.14232543110847473,9.48608684539795,2.4827969074249268
1711073757307870500,2.416870361328125,-0.14103707671165466,9.485077857971191,2.486724615097046
1711073757326830300,2.435830322265625,-0.13957741856575012,9.484310150146484,2.489732265472412
1711073757345790200,2.454790283203125,-0.1384645253419876,9.484219551086426,2.490138053894043
1711073757364750300,2.473750244140625,-0.13824358582496643,9.484359741210938,2.489614963531494
1711073757383710200,2.492710205078125,-0.13925780355930328,9.484630584716797,2.4885265827178955
1711073757402670000,2.511670166015625,-0.14260728657245636,9.484943389892578,2.487147808074951
1711073757421630000,2.5306298828125,-0.14735907316207886,9.485064506530762,2.486410140991211
1711073757440590000,2.549590087890625,-0.15270163118839264,9.485129356384277,2.4858410358428955
1711073757459550000,2.568550048828125,-0.1599046140909195,9.485026359558105,2.4857773780822754
1711073757478510000,2.587510009765625,-0.16716843843460083,9.48485279083252,2.4859635829925537
1711073757497470000,2.606469970703125,-0.1733361929655075,9.485064506530762,2.4847354888916016
1711073757516429800,2.625429931640625,-0.17896202206611633,9.485858917236328,2.481297731399536
1711073757535389700,2.6443896484375,-0.18578509986400604,9.486688613891602,2.47761869430542
1711073757554349800,2.663349853515625,-0.19267778098583221,9.48775577545166,2.473003625869751
1711073757573309700,2.682309814453125,-0.1984073966741562,9.489153861999512,2.4671802520751953
1711073757592269600,2.70126953125,-0.20168332755565643,9.490606307983398,2.4613196849823
1711073757611229400,2.7202294921875,-0.20223507285118103,9.491800308227539,2.456671953201294
1711073757630189600,2.739189453125,-0.20231468975543976,9.49334716796875,2.4506750106811523
1711073757649149400,2.7581494140625,-0.20429500937461853,9.495158195495605,2.4434852600097656
1711073757668109300,2.777109375,-0.20717468857765198,9.497047424316406,2.435886859893799
1711073757687069400,2.7960693359375,-0.20777401328086853,9.498701095581055,2.429379940032959
1711073757706029300,2.815029296875,-0.20539052784442902,9.499774932861328,2.425386428833008
1711073757724989400,2.833989501953125,-0.2012782245874405,9.500226974487305,2.4239561557769775
1711073757743949300,2.85294921875,-0.19656401872634888,9.500446319580078,2.4234814643859863
1711073757762909200,2.8719091796875,-0.19185490906238556,9.50046443939209,2.4237887859344482
1711073757781869300,2.890869384765625,-0.18692398071289062,9.500481605529785,2.4241068363189697
1711073757800829200,2.9098291015625,-0.1801803857088089,9.500489234924316,2.4245879650115967
1711073757819789000,2.9287890625,-0.1707914024591446,9.500545501708984,2.42504620552063
1711073757838749200,2.947749267578125,-0.15943799912929535,9.50100326538086,2.4240264892578125
1711073757857709000,2.966708984375,-0.14654512703418732,9.501508712768555,2.422858953475952
1711073757876669000,2.9856689453125,-0.13165847957134247,9.502289772033691,2.420647144317627
1711073757895628800,3.00462890625,-0.1171054095029831,9.503180503845215,2.417893171310425
1711073757914589000,3.0235888671875,-0.10560726374387741,9.504372596740723,2.4137377738952637
1711073757933548800,3.042548828125,-0.0971825048327446,9.50597858428955,2.4077601432800293
1711073757952509000,3.061509033203125,-0.09009052813053131,9.507615089416504,2.4015660285949707
1711073757971468800,3.08046875,-0.08387114852666855,9.508907318115234,2.3966727256774902
1711073757990429000,3.099428955078125,-0.07874903827905655,9.509812355041504,2.3932535648345947
1711073758009388800,3.118388916015625,-0.07378976792097092,9.510519981384277,2.390596389770508
1711073758028348700,3.1373486328125,-0.0685485228896141,9.51124382019043,2.3878698348999023
1711073758047308800,3.156308837890625,-0.06584644317626953,9.511804580688477,2.3857133388519287
1711073758066268700,3.1752685546875,-0.06577465683221817,9.512001037597656,2.3849353790283203
1711073758085228500,3.194228515625,-0.0658058300614357,9.512086868286133,2.3845839500427246
1711073758104188700,3.213188720703125,-0.06470286846160889,9.512105941772461,2.3845412731170654
1711073758123148500,3.2321484375,-0.06321144104003906,9.511923789978027,2.3853111267089844
1711073758142108400,3.2511083984375,-0.06322115659713745,9.512031555175781,2.3848772048950195
1711073758161068500,3.270068603515625,-0.06568159908056259,9.512249946594238,2.3839378356933594
1711073758180028400,3.2890283203125,-0.06896895170211792,9.5122709274292,2.383761405944824
1711073758198988300,3.30798828125,-0.07182775437831879,9.511850357055664,2.3853578567504883
1711073758217948400,3.326948486328125,-0.07449782639741898,9.511085510253906,2.3883252143859863
1711073758236908300,3.345908203125,-0.07808292657136917,9.51006031036377,2.392286777496338
1711073758255868400,3.364868408203125,-0.08269276469945908,9.508840560913086,2.396977424621582
1711073758274828300,3.383828369140625,-0.08767908066511154,9.507562637329102,2.4018638134002686
1711073758293788200,3.4027880859375,-0.09208112210035324,9.506146430969238,2.407296657562256
1711073758312748300,3.421748291015625,-0.09565582126379013,9.504791259765625,2.4125020503997803
1711073758331708200,3.440708251953125,-0.09732351452112198,9.503902435302734,2.4159395694732666
1711073758350668300,3.459668212890625,-0.098692387342453,9.503216743469238,2.4185774326324463
1711073758369628200,3.478628173828125,-0.09866368025541306,9.502849578857422,2.42002010345459
1711073758388588000,3.497588134765625,-0.09785712510347366,9.50273609161377,2.4205002784729004
1711073758407548200,3.516548095703125,-0.09766367077827454,9.502540588378906,2.421276092529297
1711073758426508000,3.535508056640625,-0.09941888600587845,9.502833366394043,2.420056104660034
1711073758445468000,3.554468017578125,-0.1023327112197876,9.503216743469238,2.418429374694824
1711073758464428000,3.573427978515625,-0.10416452586650848,9.503486633300781,2.417288064956665
1711073758483388000,3.592387939453125,-0.10521997511386871,9.503693580627441,2.41642689704895
1711073758502347800,3.61134765625,-0.10544979572296143,9.503824234008789,2.4159035682678223
1711073758521308000,3.630307861328125,-0.10366593301296234,9.50426959991455,2.4142298698425293
1711073758540267800,3.649267822265625,-0.10064532607793808,9.505099296569824,2.411086320877075
1711073758559228000,3.668227783203125,-0.09879960119724274,9.505682945251465,2.408863067626953
1711073758578187800,3.687187744140625,-0.09807737916707993,9.50586986541748,2.4081525802612305
1711073758597147600,3.706147705078125,-0.0964139848947525,9.505895614624023,2.4081177711486816
1711073758616107800,3.725107666015625,-0.09321755170822144,9.50593376159668,2.4080936908721924
1711073758635067600,3.744067626953125,-0.08931201696395874,9.506110191345215,2.4075474739074707
1711073758654027800,3.76302783203125,-0.08821271359920502,9.506829261779785,2.404744863510132
1711073758672987600,3.781987548828125,-0.08996633440256119,9.507830619812012,2.400716543197632
1711073758691947800,3.80094775390625,-0.09113604575395584,9.50863265991211,2.3974993228912354
1711073758710907600,3.81990771484375,-0.09079790115356445,9.508996963500977,2.3960626125335693
1711073758729867500,3.838867431640625,-0.09042021632194519,9.509082794189453,2.395738124847412
1711073758748827600,3.85782763671875,-0.09146198630332947,9.509166717529297,2.3953640460968018
1711073758767787500,3.87678759765625,-0.09370594471693039,9.509172439575195,2.395253896713257
1711073758786747600,3.89574755859375,-0.09600309282541275,9.509115219116211,2.395390510559082
1711073758805707500,3.91470751953125,-0.09683466702699661,9.508625984191895,2.3972976207733154
1711073758824667400,3.93366748046875,-0.0951303020119667,9.508148193359375,2.399261951446533
1711073758843627500,3.95262744140625,-0.0907786637544632,9.507987976074219,2.4000654220581055
1711073758862587400,3.97158740234375,-0.08594819903373718,9.508038520812988,2.400038003921509
1711073758881547300,3.99054736328125,-0.08033350110054016,9.508661270141602,2.397766590118408
1711073758900507400,4.00950732421875,-0.07573455572128296,9.509407043457031,2.3949599266052246
1711073758919467300,4.02846728515625,-0.07309660315513611,9.509916305541992,2.3930163383483887
1711073758938427400,4.047427490234375,-0.07286068797111511,9.510272026062012,2.391613006591797
1711073758957387300,4.06638720703125,-0.0733054131269455,9.510062217712402,2.3924317359924316
1711073758976347100,4.08534716796875,-0.07307721674442291,9.509345054626465,2.3952865600585938
1711073758995307300,4.104307373046875,-0.0737556740641594,9.508566856384277,2.398350238800049
1711073759014267100,4.12326708984375,-0.07443530112504959,9.507538795471191,2.4024085998535156
1711073759033227300,4.142227294921875,-0.07345182448625565,9.50643253326416,2.406809091567993
1711073759052187100,4.161187255859375,-0.07230349630117416,9.505412101745605,2.410871982574463
1711073759071147300,4.180147216796875,-0.07213485240936279,9.504037857055664,2.416288375854492
1711073759090107100,4.199107177734375,-0.07288958132266998,9.502583503723145,2.421976089477539
1711073759109067000,4.21806689453125,-0.07402224093675613,9.501347541809082,2.426790714263916
1711073759128027100,4.237027099609375,-0.07522371411323547,9.500042915344238,2.4318511486053467
1711073759146987000,4.255987060546875,-0.07615046203136444,9.499181747436523,2.4351842403411865
1711073759165947100,4.274947021484375,-0.07977572083473206,9.498574256896973,2.437443733215332
1711073759184907000,4.293906982421875,-0.08502103388309479,9.498209953308105,2.4386839866638184
1711073759203867000,4.312866943359375,-0.0890398770570755,9.497926712036133,2.439638376235962
1711073759222827000,4.331826904296875,-0.09163425862789154,9.497579574584961,2.4408979415893555
1711073759241787000,4.350786865234375,-0.09477356821298599,9.497176170349121,2.4423482418060303
1711073759260747000,4.3697470703125,-0.09908559918403625,9.49692440032959,2.443153142929077
1711073759279707000,4.388706787109375,-0.10425329208374023,9.496624946594238,2.4441018104553223
1711073759298666800,4.407666748046875,-0.10953796654939651,9.496309280395508,2.4450955390930176
1711073759317627000,4.426626953125,-0.11374401301145554,9.495884895324707,2.44655179977417
1711073759336586800,4.445586669921875,-0.11667649447917938,9.495394706726074,2.448315382003784
1711073759355547000,4.464546875,-0.11880689114332199,9.495080947875977,2.4494309425354004
1711073759374506800,4.4835068359375,-0.12267987430095673,9.49503231048584,2.4494266510009766
1711073759393466600,4.502466552734375,-0.12601853907108307,9.495192527770996,2.448641300201416
1711073759412426800,4.5214267578125,-0.12837031483650208,9.495128631591797,2.448763132095337
1711073759431386600,4.54038671875,-0.13158726692199707,9.49491024017334,2.449441432952881
1711073759450346500,4.559346435546875,-0.1368727833032608,9.494796752929688,2.4495863914489746
1711073759469306600,4.578306640625,-0.14250342547893524,9.494595527648926,2.4500513076782227
1711073759488266500,4.5972666015625,-0.1477685570716858,9.494536399841309,2.4499659538269043
1711073759507226600,4.6162265625,-0.15324226021766663,9.493988037109375,2.451754093170166
1711073759526186500,4.6351865234375,-0.15601056814193726,9.493141174316406,2.454860210418701
1711073759545146600,4.654146728515625,-0.15639762580394745,9.492355346679688,2.4578661918640137
1711073759564106500,4.6731064453125,-0.15681615471839905,9.491607666015625,2.460728883743286
1711073759583066600,4.692066650390625,-0.157439187169075,9.490817070007324,2.463735580444336
1711073759602026500,4.711026611328125,-0.15838252007961273,9.490410804748535,2.465240478515625
1711073759620986400,4.729986328125,-0.158803790807724,9.490252494812012,2.465822696685791
1711073759639946500,4.748946533203125,-0.15740343928337097,9.48985481262207,2.4674394130706787
1711073759658906400,4.76790625,-0.1559479981660843,9.48991870880127,2.4672861099243164
1711073759677866500,4.786866455078125,-0.1584281027317047,9.490373611450195,2.465380907058716
1711073759696826400,4.805826416015625,-0.16281460225582123,9.491000175476074,2.4626762866973877
1711073759715786200,4.8247861328125,-0.16469551622867584,9.491456031799316,2.4607973098754883
1711073759734746400,4.843746337890625,-0.16405482590198517,9.491501808166504,2.460663080215454
1711073759753706200,4.862706298828125,-0.16309499740600586,9.491437911987305,2.460972785949707
1711073759772666400,4.881666259765625,-0.16367708146572113,9.49199104309082,2.4587998390197754
1711073759791626200,4.900626220703125,-0.1662118285894394,9.492916107177734,2.4550600051879883
1711073759810586000,4.919586181640625,-0.1695610135793686,9.49372673034668,2.451693534851074
1711073759829546200,4.938546142578125,-0.17093899846076965,9.494234085083008,2.449629068374634
1711073759848506000,4.957506103515625,-0.16998443007469177,9.494590759277344,2.448312282562256
1711073759867466000,4.976466064453125,-0.16876237094402313,9.494841575622559,2.4474246501922607
1711073759886426000,4.995426025390625,-0.16864809393882751,9.495331764221191,2.4455325603485107
1711073759905386000,5.014385986328125,-0.16773612797260284,9.495715141296387,2.4441049098968506
1711073759924346000,5.03334619140625,-0.16497023403644562,9.495908737182617,2.443540334701538
1711073759943306000,5.052305908203125,-0.16302922368049622,9.495993614196777,2.443342924118042
1711073759962266000,5.07126611328125,-0.16395418345928192,9.496352195739746,2.441887617111206
1711073759981226000,5.09022607421875,-0.16651062667369843,9.496617317199707,2.4406793117523193
1711073760000186000,5.10918603515625,-0.16873222589492798,9.496426582336426,2.441267728805542
1711073760019146000,5.12814599609375,-0.17118678987026215,9.495573997497559,2.4444122314453125
1711073760038105900,5.14710595703125,-0.17129774391651154,9.494160652160645,2.4498865604400635
1711073760057066000,5.16606591796875,-0.1683989018201828,9.492945671081543,2.4547924995422363
1711073760076025900,5.18502587890625,-0.16342893242835999,9.492119789123535,2.4583191871643066
1711073760094986000,5.203986083984375,-0.15953300893306732,9.491472244262695,2.461077928543091
1711073760113945900,5.22294580078125,-0.15726417303085327,9.491418838500977,2.46142840385437
1711073760132905700,5.24190576171875,-0.1565016657114029,9.491662979125977,2.4605329036712646
1711073760151865900,5.260865966796875,-0.1554236114025116,9.491854667663574,2.4598655700683594
1711073760170825700,5.27982568359375,-0.1547521948814392,9.492398262023926,2.4578092098236084
1711073760189785900,5.298785888671875,-0.1575467884540558,9.492738723754883,2.456317186355591
1711073760208745700,5.317745849609375,-0.1605166494846344,9.492837905883789,2.4557361602783203
1711073760227705600,5.33670556640625,-0.16130055487155914,9.492995262145996,2.4550766944885254
1711073760246665700,5.355665771484375,-0.16015538573265076,9.493128776550293,2.4546329975128174
1711073760265625600,5.37462548828125,-0.16055335104465485,9.493673324584961,2.4525036811828613
1711073760284585500,5.39358544921875,-0.16310268640518188,9.49454116821289,2.4489715099334717
1711073760303545600,5.412545654296875,-0.16657595336437225,9.49534797668457,2.445607900619507
1711073760322505500,5.43150537109375,-0.1690893918275833,9.495868682861328,2.4434142112731934
1711073760341465600,5.450465576171875,-0.17027419805526733,9.496071815490723,2.4425458908081055
1711073760360425500,5.469425537109375,-0.16984322667121887,9.496346473693848,2.4415016174316406
1711073760379385600,5.488385498046875,-0.16884745657444,9.49669361114502,2.4402215480804443
1711073760398345500,5.507345458984375,-0.1682816445827484,9.497394561767578,2.437535285949707
1711073760417305600,5.5263056640625,-0.1657939851284027,9.498109817504883,2.4349138736724854
1711073760436265500,5.545265380859375,-0.16190627217292786,9.498723030090332,2.4327809810638428
1711073760455225300,5.564225341796875,-0.15920960903167725,9.499021530151367,2.4317965507507324
1711073760474185500,5.583185546875,-0.15863339602947235,9.499544143676758,2.429790496826172
1711073760493145300,5.602145263671875,-0.15684309601783752,9.499871253967285,2.4286305904388428
1711073760512105200,5.621105224609375,-0.15332677960395813,9.50019359588623,2.42759108543396
1711073760531065300,5.6400654296875,-0.14928346872329712,9.500324249267578,2.427333354949951
1711073760550025200,5.659025146484375,-0.14429675042629242,9.500459671020508,2.4271042346954346
1711073760568985300,5.6779853515625,-0.13893713057041168,9.501036643981934,2.425154209136963
1711073760587945200,5.6969453125,-0.13485482335090637,9.50185489654541,2.422177314758301
1711073760606905000,5.715905029296875,-0.13283224403858185,9.502145767211914,2.421151638031006
1711073760625865200,5.734865234375,-0.13055071234703064,9.502326965332031,2.420564651489258
1711073760644825000,5.7538251953125,-0.12780635058879852,9.502909660339355,2.418417453765869
1711073760663785000,5.772784912109375,-0.1250075250864029,9.503536224365234,2.4161033630371094
1711073760682745000,5.7917451171875,-0.12293455749750137,9.504592895507812,2.4120516777038574
1711073760701705000,5.810705078125,-0.12478650361299515,9.505606651306152,2.4079577922821045
1711073760720665000,5.8296650390625,-0.1283319890499115,9.506545066833496,2.404064178466797
1711073760739625000,5.848625,-0.1299346387386322,9.507247924804688,2.4011945724487305
1711073760758584800,5.867584716796875,-0.12920261919498444,9.5078763961792,2.3987460136413574
1711073760777545000,5.886544921875,-0.12944389879703522,9.508667945861816,2.39559006690979
1711073760796504800,5.9055048828125,-0.13264618813991547,9.509773254394531,2.391024112701416
1711073760815465000,5.92446484375,-0.13792172074317932,9.510785102844238,2.386699676513672
1711073760834424800,5.9434248046875,-0.1435268223285675,9.511344909667969,2.3841328620910645
1711073760853385000,5.962385009765625,-0.14741691946983337,9.51131820678711,2.3840060234069824
1711073760872344800,5.9813447265625,-0.14914770424365997,9.511046409606934,2.3849802017211914
1711073760891305000,6.000304931640625,-0.15023887157440186,9.510956764221191,2.385267496109009
1711073760910264800,6.019264892578125,-0.15147285163402557,9.511040687561035,2.3848588466644287
1711073760929225000,6.038224853515625,-0.15180879831314087,9.51140022277832,2.3834002017974854
1711073760948184800,6.057184814453125,-0.15218013525009155,9.511460304260254,2.3831357955932617
1711073760967144700,6.076144775390625,-0.15504059195518494,9.511494636535645,2.3828189373016357
1711073760986104800,6.095104736328125,-0.15982912480831146,9.511348724365234,2.3830819129943848
1711073761005064700,6.114064697265625,-0.16283604502677917,9.510682106018066,2.385538339614868
1711073761024024800,6.13302490234375,-0.16359521448612213,9.509847640991211,2.38881254196167
1711073761042984700,6.151984619140625,-0.16428352892398834,9.50894546508789,2.3923537731170654
1711073761061944800,6.17094482421875,-0.16339103877544403,9.508199691772461,2.395375967025757
1711073761080904700,6.18990478515625,-0.16109329462051392,9.507905006408691,2.3967034816741943
1711073761099864600,6.208864501953125,-0.15966615080833435,9.507719039916992,2.3975343704223633
1711073761118824700,6.22782470703125,-0.15867790579795837,9.50731086730957,2.3992207050323486
1711073761137784600,6.24678466796875,-0.15661270916461945,9.507269859313965,2.399515151977539
1711073761156744700,6.26574462890625,-0.15303422510623932,9.507611274719238,2.398397207260132
1711073761175704600,6.28470458984375,-0.148666113615036,9.508147239685059,2.3965470790863037
1711073761194664700,6.303664794921875,-0.14646701514720917,9.509241104125977,2.392333745956421
1711073761213624600,6.32262451171875,-0.14615821838378906,9.510345458984375,2.3879568576812744
1711073761232584700,6.341584716796875,-0.14499597251415253,9.511272430419922,2.384338855743408
1711073761251544600,6.360544677734375,-0.14197297394275665,9.511935234069824,2.3818719387054443
1711073761270504700,6.379504638671875,-0.13705408573150635,9.512493133544922,2.3799309730529785
1711073761289464600,6.398464599609375,-0.13218677043914795,9.513158798217773,2.3775458335876465
1711073761308424700,6.4174248046875,-0.12844642996788025,9.513830184936523,2.3750619888305664
1711073761327384600,6.436384521484375,-0.12505082786083221,9.514124870300293,2.3740663528442383
1711073761346344700,6.4553447265625,-0.12164060026407242,9.51416301727295,2.3740878105163574
1711073761365304600,6.4743046875,-0.11648912727832794,9.514155387878418,2.3743815422058105
1711073761384264700,6.4932646484375,-0.10962715744972229,9.514235496520996,2.374379873275757
1711073761403224600,6.512224609375,-0.10257868468761444,9.514241218566895,2.3746769428253174
1711073761422184700,6.531184814453125,-0.09430773556232452,9.514450073242188,2.374183177947998
1711073761441144600,6.55014453125,-0.08589936047792435,9.514473915100098,2.3744003772735596
1711073761460104700,6.569104736328125,-0.07913575321435928,9.514419555664062,2.3748605251312256
1711073761479064600,6.588064697265625,-0.0747639462351799,9.5147066116333,2.373849391937256
1711073761498024700,6.607024658203125,-0.07132060080766678,9.514823913574219,2.373485803604126
1711073761516984600,6.625984619140625,-0.06739094108343124,9.514795303344727,2.3737123012542725
1711073761535944700,6.64494482421875,-0.06392008811235428,9.514825820922852,2.373688220977783
1711073761554904600,6.663904541015625,-0.05955163761973381,9.51455020904541,2.3749051094055176
1711073761573864700,6.68286474609375,-0.05353619158267975,9.514347076416016,2.375861406326294
1711073761592824600,6.701824462890625,-0.047519832849502563,9.514249801635742,2.376380443572998
1711073761611784700,6.72078466796875,-0.04432261362671852,9.514057159423828,2.3772106170654297
1711073761630744800,6.739744873046875,-0.04239571467041969,9.513883590698242,2.3779420852661133
1711073761649704700,6.75870458984375,-0.040590085089206696,9.513958930969238,2.3776707649230957
1711073761668664800,6.777664794921875,-0.038491763174533844,9.513859748840332,2.378101110458374
1711073761687624700,6.796624755859375,-0.03844048082828522,9.513885498046875,2.3780009746551514
1711073761706584800,6.815584716796875,-0.041901733726263046,9.513847351074219,2.3780946731567383
1711073761725545000,6.834544921875,-0.04624463617801666,9.51372241973877,2.378511905670166
1711073761744504800,6.8535048828125,-0.04968038946390152,9.513206481933594,2.3805081844329834
1711073761763465000,6.87246484375,-0.05268488824367523,9.512482643127441,2.3833324909210205
1711073761782424800,6.8914248046875,-0.055368244647979736,9.511898040771484,2.3856101036071777
1711073761801385000,6.910385009765625,-0.058802299201488495,9.511388778686523,2.38755464553833
1711073761820344800,6.9293447265625,-0.062970370054245,9.510950088500977,2.3891959190368652
1711073761839305000,6.948304931640625,-0.06708963215351105,9.510587692260742,2.3905231952667236
1711073761858264800,6.967264892578125,-0.07156193256378174,9.510040283203125,2.3925695419311523
1711073761877225000,6.986224853515625,-0.07491611689329147,9.509573936462402,2.394324779510498
1711073761896185000,7.00518505859375,-0.0776752457022667,9.509038925170898,2.3963582515716553
1711073761915145000,7.02414501953125,-0.07899559289216995,9.508638381958008,2.397902250289917
1711073761934105000,7.04310498046875,-0.08002963662147522,9.508095741271973,2.400017499923706
1711073761953065200,7.062065185546875,-0.08370313793420792,9.507373809814453,2.4027554988861084
1711073761972025000,7.081025146484375,-0.09065046906471252,9.50703239440918,2.40385103225708
1711073761990985200,7.099985107421875,-0.09858047217130661,9.506718635559082,2.404780387878418
1711073762009945300,7.1189453125,-0.10463608801364899,9.50632381439209,2.4060862064361572
1711073762028905200,7.1379052734375,-0.10989879071712494,9.505433082580566,2.409365177154541
1711073762047865300,7.156865234375,-0.11295825242996216,9.504359245300293,2.413459062576294
1711073762066825500,7.175825439453125,-0.11456908285617828,9.50363540649414,2.4162328243255615
1711073762085785600,7.19478564453125,-0.11747448146343231,9.503417015075684,2.4169533252716064
1711073762104745500,7.213745361328125,-0.12205914407968521,9.503026008605957,2.418259859085083
1711073762123705600,7.23270556640625,-0.12682752311229706,9.502376556396484,2.420567035675049
1711073762142665500,7.25166552734375,-0.12970861792564392,9.501708030700684,2.4230380058288574
1711073762161625600,7.27062548828125,-0.13140401244163513,9.50069522857666,2.4269137382507324
1711073762180585700,7.289585693359375,-0.13319121301174164,9.500091552734375,2.4291810989379883
1711073762199545600,7.308545654296875,-0.13705256581306458,9.499736785888672,2.4303510189056396
1711073762218505700,7.327505615234375,-0.14168614149093628,9.499831199645996,2.429713249206543
1711073762237465900,7.3464658203125,-0.14524899423122406,9.499920845031738,2.4291563034057617
1711073762256426000,7.365426025390625,-0.14692716300487518,9.499974250793457,2.4288439750671387
1711073762275385900,7.3843857421875,-0.1479163020849228,9.500035285949707,2.4285459518432617
1711073762294346000,7.403345947265625,-0.14932335913181305,9.50020694732666,2.427792549133301
1711073762313306000,7.42230615234375,-0.15136705338954926,9.500320434570312,2.427217960357666
1711073762332266000,7.441265869140625,-0.1525743156671524,9.500349998474121,2.427027463912964
1711073762351226000,7.46022607421875,-0.15244796872138977,9.50010871887207,2.427980422973633
1711073762370186200,7.479186279296875,-0.15114106237888336,9.49984073638916,2.4291083812713623
1711073762389146000,7.49814599609375,-0.14990907907485962,9.49962329864502,2.4300386905670166
1711073762408106200,7.517106201171875,-0.14832444489002228,9.49940013885498,2.431004524230957
1711073762427066400,7.53606640625,-0.1458469182252884,9.499139785766602,2.4321694374084473
1711073762446026500,7.555026611328125,-0.1434614360332489,9.498430252075195,2.435086488723755
1711073762464986400,7.573986328125,-0.1425858736038208,9.497976303100586,2.436903953552246
1711073762483946500,7.592946533203125,-0.1436740756034851,9.497862815856934,2.437283992767334
1711073762502906600,7.61190673828125,-0.1442384272813797,9.497899055480957,2.4371070861816406
1711073762521866500,7.630866455078125,-0.1442050188779831,9.497653007507324,2.4380691051483154
1711073762540826600,7.64982666015625,-0.1428702175617218,9.497159004211426,2.4400699138641357
1711073762559786800,7.668786865234375,-0.13958509266376495,9.496829986572266,2.4415395259857178
1711073762578747000,7.687746826171875,-0.13648411631584167,9.496902465820312,2.4414331912994385
1711073762597706800,7.706706787109375,-0.13448208570480347,9.497102737426758,2.4407639503479004
1711073762616667000,7.7256669921875,-0.1333504170179367,9.497344017028809,2.4398884773254395
1711073762635627000,7.744626953125,-0.13199801743030548,9.497944831848145,2.4376230239868164
1711073762654587100,7.763587158203125,-0.13000257313251495,9.498754501342773,2.4345755577087402
1711073762673547300,7.78254736328125,-0.12734894454479218,9.499492645263672,2.4318337440490723
1711073762692507100,7.801507080078125,-0.12675277888774872,9.500608444213867,2.427499771118164
1711073762711467300,7.82046728515625,-0.12984542548656464,9.501908302307129,2.422248125076294
1711073762730427100,7.83942724609375,-0.13250406086444855,9.503211975097656,2.4169809818267822
1711073762749387300,7.85838720703125,-0.13293933868408203,9.504348754882812,2.4124836921691895
1711073762768347400,7.877347412109375,-0.13059166073799133,9.505393028259277,2.4084889888763428
1711073762787307500,7.8963076171875,-0.127578467130661,9.506489753723145,2.4043235778808594
1711073762806267600,7.915267578125,-0.12496263533830643,9.507784843444824,2.3993353843688965
1711073762825227800,7.934227783203125,-0.12281706184148788,9.509072303771973,2.3943381309509277
1711073762844187600,7.953187744140625,-0.12104371190071106,9.510066032409668,2.3904757499694824
1711073762863147800,7.972147705078125,-0.11903500556945801,9.510964393615723,2.3870017528533936
1711073762882108000,7.99110791015625,-0.11615815758705139,9.511738777160645,2.384056806564331
1711073762901067800,8.01006787109375,-0.11369437724351883,9.512462615966797,2.38128662109375
1711073762920028000,8.02902783203125,-0.11075020581483841,9.513023376464844,2.379183292388916
1711073762938988000,8.047988037109375,-0.10676842927932739,9.51315689086914,2.378828525543213
1711073762957948200,8.0669482421875,-0.10426576435565948,9.512797355651855,2.380377769470215
1711073762976908300,8.085908203125,-0.10495048761367798,9.512767791748047,2.380467176437378
1711073762995868200,8.1048681640625,-0.10711507499217987,9.512746810913086,2.380450963973999
1711073763014828300,8.123828369140625,-0.10827181488275528,9.512693405151367,2.3806166648864746
1711073763033788400,8.142788330078124,-0.10925272107124329,9.512465476989746,2.381479263305664
1711073763052748300,8.161748291015625,-0.10833584517240524,9.511894226074219,2.3838016986846924
1711073763071708400,8.18070849609375,-0.10521938651800156,9.511575698852539,2.3852107524871826
1711073763090668500,8.19966845703125,-0.1026526391506195,9.511655807495117,2.3850109577178955
1711073763109628700,8.218628662109374,-0.10217644274234772,9.511639595031738,2.385087251663208
1711073763128588800,8.2375888671875,-0.10265619307756424,9.511799812316895,2.3844287395477295
1711073763147549000,8.256548828125,-0.10217366367578506,9.512060165405273,2.3834140300750732
1711073763166508800,8.2755087890625,-0.10003189742565155,9.512227058410645,2.382836103439331
1711073763185469000,8.294468994140624,-0.09871789067983627,9.512866973876953,2.380335569381714
1711073763204429000,8.313428955078125,-0.10020521283149719,9.51357650756836,2.3774337768554688
1711073763223389000,8.332388916015624,-0.10180238634347916,9.514313697814941,2.374420404434204
1711073763242349000,8.35134912109375,-0.10091619938611984,9.514845848083496,2.3723225593566895
1711073763261309200,8.37030908203125,-0.09809812903404236,9.515128135681152,2.371309995651245
1711073763280269300,8.389269287109375,-0.09608487039804459,9.515717506408691,2.3690245151519775
1711073763299229400,8.4082294921875,-0.09513898193836212,9.516490936279297,2.3659541606903076
1711073763318189300,8.427189208984375,-0.09506071358919144,9.517193794250488,2.363124132156372
1711073763337149400,8.4461494140625,-0.0956210270524025,9.517650604248047,2.3612635135650635
1711073763356109600,8.465109619140625,-0.09558660537004471,9.517603874206543,2.3614513874053955
1711073763375069700,8.484069580078126,-0.09351811558008194,9.517268180847168,2.362887382507324
1711073763394029600,8.503029541015625,-0.08989764750003815,9.516667366027832,2.365450620651245
1711073763412989700,8.52198974609375,-0.08340354263782501,9.516251564025879,2.3673603534698486
1711073763431949800,8.54094970703125,-0.07749594002962112,9.515979766845703,2.368652105331421
1711073763450910000,8.559909912109376,-0.07525046169757843,9.51618766784668,2.367886781692505
1711073763469870000,8.5788701171875,-0.07658808678388596,9.516678810119629,2.3658721446990967
1711073763488830000,8.597829833984376,-0.07729712128639221,9.51660442352295,2.366150379180908
1711073763507790000,8.6167900390625,-0.07635866105556488,9.516106605529785,2.3681790828704834
1711073763526750200,8.635750244140626,-0.0748056173324585,9.515680313110352,2.3699400424957275
1711073763545710300,8.65471044921875,-0.07102013379335403,9.515643119812012,2.370210647583008
1711073763564670200,8.673670166015626,-0.06597167253494263,9.516070365905762,2.368640184402466
1711073763583630300,8.69263037109375,-0.06300413608551025,9.51662540435791,2.3664848804473877
1711073763602590500,8.711590576171876,-0.06337937712669373,9.51697826385498,2.3650588989257812
1711073763621550600,8.730550537109375,-0.06512825936079025,9.517190933227539,2.3641560077667236
1711073763640510500,8.749510498046876,-0.06496891379356384,9.517243385314941,2.3639473915100098
1711073763659470600,8.768470703125,-0.06342248618602753,9.517040252685547,2.3648064136505127
1711073763678430700,8.7874306640625,-0.062268175184726715,9.517251014709473,2.363990068435669
1711073763697390800,8.806390869140625,-0.06409899890422821,9.517677307128906,2.362227201461792
1711073763716351000,8.82535107421875,-0.06681761145591736,9.518121719360352,2.360356330871582
1711073763735310800,8.844310791015625,-0.06850011646747589,9.518298149108887,2.3595995903015137
1711073763754271000,8.86327099609375,-0.06964558362960815,9.518302917480469,2.3595428466796875
1711073763773231000,8.882231201171875,-0.07230911403894424,9.51817798614502,2.3599674701690674
1711073763792191000,8.90119091796875,-0.07681595534086227,9.518248558044434,2.3595426082611084
1711073763811151000,8.920151123046875,-0.08123666048049927,9.518020629882812,2.3603098392486572
1711073763830111200,8.939111328125,-0.08506333082914352,9.51736068725586,2.362837791442871
1711073763849071400,8.9580712890625,-0.08689532428979874,9.516508102416992,2.3662049770355225
1711073763868031500,8.977031494140626,-0.08702012151479721,9.5155611038208,2.3700015544891357
1711073763886991600,8.99599169921875,-0.0857202485203743,9.515020370483398,2.372220516204834
1711073763905951500,9.014951416015625,-0.08412808179855347,9.515012741088867,2.3723111152648926
1711073763924911600,9.03391162109375,-0.08362777531147003,9.515076637268066,2.3720669746398926
1711073763943871700,9.052871826171875,-0.08522818237543106,9.515310287475586,2.3710732460021973
1711073763962831600,9.07183154296875,-0.08801794797182083,9.515397071838379,2.3706214427948
1711073763981791700,9.090791748046875,-0.09036093205213547,9.515403747558594,2.3705081939697266
1711073764000751900,9.109751953125,-0.09309163689613342,9.51537799835205,2.37050461769104
1711073764019712000,9.1287119140625,-0.09499800205230713,9.515095710754395,2.3715641498565674
1711073764038672100,9.147672119140625,-0.09434404224157333,9.514690399169922,2.373215675354004
1711073764057632000,9.166632080078125,-0.09284117072820663,9.514544486999512,2.3738608360290527
1711073764076592000,9.185592041015624,-0.09298568964004517,9.514476776123047,2.374127149581909
1711073764095552300,9.20455224609375,-0.09438598901033401,9.514348030090332,2.374586820602417
1711073764114512100,9.22351220703125,-0.09621716290712357,9.514362335205078,2.3744542598724365
1711073764133472300,9.24247216796875,-0.09729178994894028,9.514200210571289,2.3750619888305664
1711073764152432400,9.261432373046874,-0.09793715178966522,9.513738632202148,2.3768856525421143
1711073764171392500,9.280392578125,-0.10112717747688293,9.513527870178223,2.377593755722046
1711073764190352600,9.2993525390625,-0.10655130445957184,9.513362884521484,2.378014087677002
1711073764209312500,9.3183125,-0.11107081174850464,9.513143539428711,2.37868595123291
1711073764228272600,9.337272705078124,-0.11300604045391083,9.512822151184082,2.3798773288726807
1711073764247232800,9.356232666015625,-0.11420216411352158,9.51259994506836,2.3807108402252197
1711073764266193000,9.37519287109375,-0.11593018472194672,9.512475967407227,2.3811254501342773
1711073764285152800,9.39415283203125,-0.11920933425426483,9.512368202209473,2.3813939094543457
1711073764304113000,9.41311279296875,-0.12267874926328659,9.512099266052246,2.382291078567505
1711073764323073000,9.432072998046875,-0.12557736039161682,9.511637687683105,2.3839809894561768
1711073764342033200,9.451033203125,-0.12607316672801971,9.510822296142578,2.3872039318084717
1711073764360993000,9.469992919921875,-0.1252753734588623,9.51014518737793,2.3899433612823486
1711073764379953200,9.488953125,-0.12450568377971649,9.509695053100586,2.3917758464813232
1711073764398913300,9.507913330078125,-0.12331457436084747,9.509596824645996,2.392225503921509
1711073764417873400,9.526873291015624,-0.12296519428491592,9.509418487548828,2.392951250076294
1711073764436833300,9.545833251953125,-0.12397094815969467,9.509469985961914,2.392697811126709
1711073764455793400,9.56479345703125,-0.12736178934574127,9.509684562683105,2.391664981842041
1711073764474753500,9.58375341796875,-0.1306813806295395,9.509860038757324,2.3907878398895264
1711073764493713700,9.602713623046874,-0.13362102210521698,9.509986877441406,2.390122652053833
1711073764512673500,9.621673583984375,-0.13491550087928772,9.509605407714844,2.3915677070617676
1711073764531633700,9.640633544921876,-0.13280703127384186,9.509260177612305,2.3930556774139404
1711073764550593800,9.65959375,-0.12855489552021027,9.509148597717285,2.3937318325042725
1711073764569554000,9.678553955078126,-0.12504206597805023,9.509244918823242,2.3935353755950928
1711073764588513800,9.697513671875,-0.12336698919534683,9.509478569030762,2.392692804336548
1711073764607474000,9.716473876953126,-0.12218733131885529,9.51029109954834,2.3895249366760254
1711073764626434000,9.73543408203125,-0.12053534388542175,9.511406898498535,2.3851606845855713
1711073764645394000,9.754393798828126,-0.11865716427564621,9.51230525970459,2.381674289703369
1711073764664354000,9.77335400390625,-0.11729469895362854,9.513413429260254,2.377307891845703
1711073764683314200,9.792314208984376,-0.11900871247053146,9.514183044433594,2.3741395473480225
1711073764702274300,9.8112744140625,-0.12047798186540604,9.514883995056152,2.3712589740753174
1711073764721234200,9.830234130859376,-0.11872411519289017,9.515427589416504,2.369163751602173
1711073764740194300,9.8491943359375,-0.11482401192188263,9.51590633392334,2.367427110671997
1711073764759154400,9.868154541015626,-0.11138482391834259,9.51675796508789,2.3641693592071533
1711073764778114600,9.887114501953125,-0.10965126752853394,9.517898559570312,2.35965895652771
1711073764797074400,9.906074462890626,-0.10935012251138687,9.519186019897461,2.354469060897827
1711073764816034600,9.92503466796875,-0.10975134372711182,9.520336151123047,2.3497984409332275
1711073764834994700,9.94399462890625,-0.10907569527626038,9.521071434020996,2.346843719482422
1711073764853954600,9.96295458984375,-0.10755980759859085,9.521649360656738,2.3445677757263184
1711073764872914700,9.981914794921876,-0.1055697575211525,9.522147178649902,2.3426384925842285
1711073764891874800,10.000874755859375,-0.10255216062068939,9.522978782653809,2.3393890857696533
1711073764910835000,10.0198349609375,-0.09908366203308105,9.523624420166016,2.336907148361206
1711073764929795000,10.038795166015625,-0.09697812795639038,9.524250984191895,2.334444284439087
1711073764948755000,10.0577548828125,-0.09790506958961487,9.525023460388184,2.331252098083496
1711073764967715000,10.076715087890625,-0.09806148707866669,9.525683403015137,2.3285439014434814
1711073764986675000,10.095675048828125,-0.09794926643371582,9.526448249816895,2.3254222869873047
1711073765005635000,10.114635009765625,-0.09848358482122421,9.526948928833008,2.3233494758605957
1711073765024595200,10.13359521484375,-0.0975913479924202,9.527182579040527,2.3224246501922607
1711073765043555300,10.152555419921875,-0.09458182007074356,9.527392387390137,2.321688175201416
1711073765062515200,10.17151513671875,-0.09194812923669815,9.52733039855957,2.3220481872558594
1711073765081475300,10.190475341796875,-0.0909210816025734,9.527026176452637,2.3233375549316406
1711073765100435500,10.209435546875,-0.09054793417453766,9.526810646057129,2.3242363929748535
1711073765119395600,10.2283955078125,-0.08886303752660751,9.526898384094238,2.323941707611084
1711073765138355500,10.24735546875,-0.0869332030415535,9.526947021484375,2.323812961578369
1711073765157315600,10.266315673828124,-0.08661868423223495,9.527247428894043,2.322596311569214
1711073765176275500,10.285275390625,-0.08991540968418121,9.527607917785645,2.32098650932312
1711073765195235600,10.304235595703124,-0.09243200719356537,9.527853012084961,2.319885492324829
1711073765214195700,10.32319580078125,-0.09231838583946228,9.527740478515625,2.320352077484131
1711073765233155800,10.34215576171875,-0.09009695798158646,9.527817726135254,2.320122241973877
1711073765252115700,10.36111572265625,-0.08925215154886246,9.528264045715332,2.318321466445923
1711073765271075800,10.380075927734374,-0.08982636034488678,9.528953552246094,2.3154637813568115
1711073765290036000,10.399035888671875,-0.09215635806322098,9.529648780822754,2.312504768371582
1711073765308996000,10.41799609375,-0.09413058310747147,9.529989242553711,2.3110249042510986
1711073765327956000,10.4369560546875,-0.09509778767824173,9.530010223388672,2.3108983039855957
1711073765346916000,10.455916015625,-0.0943494513630867,9.530075073242188,2.310662031173706
1711073765365876200,10.474876220703125,-0.09292608499526978,9.529923439025879,2.311345100402832
1711073765384836000,10.493836181640624,-0.09036710113286972,9.530092239379883,2.31075119972229
1711073765403796200,10.512796142578125,-0.08968796581029892,9.530281066894531,2.309995651245117
1711073765422756400,10.53175634765625,-0.09105796366930008,9.530406951904297,2.3094217777252197
1711073765441716200,10.55071630859375,-0.09327548742294312,9.530509948730469,2.3089098930358887
1711073765460676400,10.56967626953125,-0.09484106302261353,9.530278205871582,2.3098037242889404
1711073765479636500,10.588636474609375,-0.0957237184047699,9.529546737670898,2.3127834796905518
1711073765498596400,10.607596435546874,-0.09548148512840271,9.528508186340332,2.3170692920684814
1711073765517556500,10.626556396484375,-0.092075414955616,9.52748966217041,2.321389675140381
1711073765536516600,10.6455166015625,-0.08677074313163757,9.526692390441895,2.3248655796051025
1711073765555476700,10.664476806640625,-0.08352147042751312,9.526042938232422,2.3276407718658447
1711073765574436600,10.6834365234375,-0.08090605586767197,9.525378227233887,2.3304555416107178
1711073765593396700,10.702396728515625,-0.07778540998697281,9.524824142456055,2.33282208442688
1711073765612356600,10.721356689453126,-0.07407911866903305,9.524481773376465,2.334341287612915
1711073765631316700,10.740316650390625,-0.0708761140704155,9.523993492126465,2.33642840385437
1711073765650276900,10.75927685546875,-0.07015814632177353,9.523914337158203,2.3367724418640137
1711073765669237000,10.778237060546875,-0.07056130468845367,9.523945808410645,2.3366334438323975
1711073765688196900,10.79719677734375,-0.0683625116944313,9.523605346679688,2.3380842208862305
1711073765707157000,10.816156982421875,-0.06362426280975342,9.523138999938965,2.3401191234588623
1711073765726117000,10.8351171875,-0.05815890431404114,9.522878646850586,2.3413217067718506
1711073765745077000,10.854076904296875,-0.05465586483478546,9.5230131149292,2.340855360031128
1711073765764037000,10.873037109375,-0.05443523824214935,9.523405075073242,2.339266061782837
1711073765782997200,10.891997314453125,-0.056288693100214005,9.523528099060059,2.3387229442596436
1711073765801957400,10.910957275390626,-0.057501230388879776,9.523207664489746,2.3400022983551025
1711073765820917200,10.929917236328125,-0.05669306591153145,9.522653579711914,2.342273235321045
1711073765839877400,10.94887744140625,-0.05415242537856102,9.521849632263184,2.3455970287323
1711073765858837200,10.967837158203125,-0.04988561570644379,9.521283149719238,2.3479907512664795
1711073765877797400,10.98679736328125,-0.046785615384578705,9.52112865447998,2.348687171936035
1711073765896757500,11.005757568359375,-0.04616799205541611,9.521160125732422,2.348566770553589
1711073765915717400,11.02471728515625,-0.048148125410079956,9.52155876159668,2.346909523010254
1711073765934677500,11.043677490234375,-0.05104538053274155,9.52167797088623,2.3463644981384277
1711073765953637600,11.0626376953125,-0.05348947271704674,9.521288871765137,2.3478870391845703
1711073765972597800,11.08159765625,-0.05686396360397339,9.520731925964355,2.3500685691833496
1711073765991557600,11.1005576171875,-0.05898354947566986,9.519892692565918,2.3534095287323
1711073766010517800,11.119517822265625,-0.057400938123464584,9.519020080566406,2.356982707977295
1711073766029478000,11.138477783203125,-0.05441233143210411,9.518482208251953,2.359220504760742
1711073766048437800,11.157437744140625,-0.053178396075963974,9.51787281036377,2.3617069721221924
1711073766067398000,11.17639794921875,-0.052803173661231995,9.517485618591309,2.3632748126983643
1711073766086358000,11.19535791015625,-0.05251409113407135,9.517410278320312,2.3635873794555664
1711073766105318000,11.21431787109375,-0.052005380392074585,9.51729679107666,2.3640522956848145
1711073766124278000,11.233278076171874,-0.05290871113538742,9.517292976379395,2.3640506267547607
1711073766143238100,11.252238037109375,-0.056444332003593445,9.517355918884277,2.3637101650238037
1711073766162198300,11.2711982421875,-0.05902677774429321,9.517189025878906,2.364321231842041
1711073766181158100,11.290158203125,-0.060112494975328445,9.5167236328125,2.36616587638855
1711073766200118300,11.3091181640625,-0.0597023144364357,9.516044616699219,2.3689043521881104
1711073766219078400,11.328078369140625,-0.06001701205968857,9.515554428100586,2.370868444442749
1711073766238038300,11.347038330078124,-0.06158994510769844,9.515294075012207,2.371873617172241
1711073766256998400,11.365998291015625,-0.06355530768632889,9.514884948730469,2.3734614849090576
1711073766275958500,11.38495849609375,-0.06522206962108612,9.514208793640137,2.376120090484619
1711073766294918700,11.403918701171875,-0.0657731145620346,9.513440132141113,2.3791847229003906
1711073766313878500,11.42287841796875,-0.06469131261110306,9.512742042541504,2.3820040225982666
1711073766332838700,11.441838623046875,-0.06419484317302704,9.512179374694824,2.3842649459838867
1711073766351798800,11.460798828125,-0.06389057636260986,9.511548042297363,2.386793375015259
1711073766370759000,11.479759033203125,-0.0627855509519577,9.510570526123047,2.3907108306884766
1711073766389718800,11.49871875,-0.06159443408250809,9.509184837341309,2.396245241165161
1711073766408679000,11.517678955078125,-0.062258828431367874,9.507983207702637,2.400994062423706
1711073766427638500,11.536638427734376,-0.06487981975078583,9.507040977478027,2.404651165008545
1711073766446598400,11.555598388671875,-0.066935233771801,9.506288528442383,2.4075686931610107
1711073766465558500,11.57455859375,-0.06859737634658813,9.505311965942383,2.4113757610321045
1711073766484518700,11.5935185546875,-0.06861475855112076,9.504055976867676,2.41631817817688
1711073766503478800,11.612478759765626,-0.06600797921419144,9.502777099609375,2.421414852142334
1711073766522439000,11.63143896484375,-0.06256183981895447,9.501533508300781,2.4263792037963867
1711073766541398800,11.650398681640626,-0.060059431940317154,9.50019645690918,2.431675910949707
1711073766560359000,11.66935888671875,-0.05821424350142479,9.499235153198242,2.435472011566162
1711073766579319000,11.688319091796876,-0.056052640080451965,9.498825073242188,2.4371187686920166
1711073766598279000,11.70727880859375,-0.053083635866642,9.498642921447754,2.437899351119995
1711073766617239000,11.726239013671876,-0.05048228055238724,9.498666763305664,2.437861919403076
1711073766636199200,11.74519921875,-0.05107935518026352,9.499246597290039,2.4355897903442383
1711073766655159300,11.7641591796875,-0.055052753537893295,9.499914169311523,2.432896614074707
1711073766674119400,11.783119384765625,-0.058131709694862366,9.500306129455566,2.4312939643859863
1711073766693079300,11.802079345703126,-0.057842355221509933,9.50049114227295,2.4305813312530518
1711073766712039400,11.821039306640625,-0.055068302899599075,9.500575065612793,2.4303135871887207
1711073766730999600,11.83999951171875,-0.053030893206596375,9.501105308532715,2.4282827377319336
1711073766749959700,11.858959716796875,-0.05337349697947502,9.502203941345215,2.4239742755889893
1711073766768919800,11.877919921875,-0.05594596639275551,9.503528594970703,2.418717622756958
1711073766787880000,11.8968798828125,-0.05796581134200096,9.504938125610352,2.41312837600708
1711073766806839800,11.91583984375,-0.05688771978020668,9.505841255187988,2.4095895290374756
1711073766825800000,11.934800048828125,-0.05383376404643059,9.506654739379883,2.406452178955078
1711073766844760000,11.953760009765626,-0.05233445763587952,9.507596969604492,2.4027597904205322
1711073766863720200,11.97272021484375,-0.0507524199783802,9.50866985321045,2.398543119430542
1711073766882680000,11.99168017578125,-0.050780680030584335,9.509695053100586,2.39447021484375
1711073766901640200,12.01064013671875,-0.05373686924576759,9.510945320129395,2.389439344406128
1711073766920600300,12.029600341796876,-0.058181628584861755,9.511709213256836,2.38629150390625
1711073766939560400,12.048560546875,-0.05933556705713272,9.512077331542969,2.3848001956939697
1711073766958520600,12.0675205078125,-0.059703659266233444,9.512511253356934,2.383058786392212
1711073766977480400,12.08648046875,-0.05986874923110008,9.5130033493042,2.3810875415802
1711073766996440600,12.105440673828125,-0.058900605887174606,9.513635635375977,2.3785831928253174
1711073767015400700,12.124400634765625,-0.05712015926837921,9.514039039611816,2.377011775970459
1711073767034360800,12.14336083984375,-0.056351903825998306,9.513986587524414,2.377242088317871
1711073767053321000,12.162321044921875,-0.05630018934607506,9.51374340057373,2.3782131671905518
1711073767072281000,12.181281005859375,-0.056375034153461456,9.513764381408691,2.3781282901763916
1711073767091241200,12.2002412109375,-0.05634676665067673,9.513986587524414,2.3772382736206055
1711073767110201000,12.219201171875,-0.05490940809249878,9.513864517211914,2.377760887145996
1711073767129161200,12.2381611328125,-0.053750790655612946,9.513455390930176,2.3794257640838623
1711073767148121300,12.257121337890625,-0.055864766240119934,9.513131141662598,2.3806729316711426
1711073767167081500,12.27608154296875,-0.05899073928594589,9.51275634765625,2.3820903301239014
1711073767186041600,12.29504150390625,-0.05909335985779762,9.512313842773438,2.3838582038879395
1711073767205001700,12.314001708984375,-0.0545424148440361,9.511834144592285,2.385880947113037
1711073767223961900,12.3329619140625,-0.04890456050634384,9.511377334594727,2.3878262042999268
1711073767242922000,12.351921875,-0.04541732370853424,9.511265754699707,2.3883395195007324
1711073767261882000,12.370882080078125,-0.0439162440598011,9.51169490814209,2.386653423309326
1711073767280842000,12.389842041015624,-0.04450710862874985,9.512104034423828,2.3850150108337402
1711073767299802000,12.408802001953125,-0.04487837105989456,9.512356758117676,2.384000062942505
1711073767318762200,12.42776220703125,-0.04467659443616867,9.512561798095703,2.383180856704712
1711073767337722400,12.446722412109375,-0.043356649577617645,9.51272201538086,2.3825643062591553
1711073767356682500,12.4656826171875,-0.03978615999221802,9.51307201385498,2.3812320232391357
1711073767375642600,12.484642578125,-0.03580719977617264,9.513152122497559,2.3809752464294434
1711073767394602800,12.503602783203124,-0.034748706966638565,9.513481140136719,2.3796746730804443
1711073767413562600,12.522562744140625,-0.03709707781672478,9.514178276062012,2.376849412918091
1711073767432522800,12.541522705078124,-0.03918793052434921,9.514760971069336,2.374483585357666
1711073767451483000,12.56048291015625,-0.04073404148221016,9.515288352966309,2.372344732284546
1711073767470443000,12.579443115234374,-0.04133893549442291,9.515419960021973,2.37180757522583
1711073767489403100,12.598403076171875,-0.03866454213857651,9.515283584594727,2.3723995685577393
1711073767508363300,12.61736328125,-0.03421180322766304,9.515219688415527,2.3727221488952637
1711073767527323400,12.636323486328125,-0.0320868194103241,9.515080451965332,2.3733115196228027
1711073767546283500,12.655283447265624,-0.03249528631567955,9.51495361328125,2.373812675476074
1711073767565243600,12.67424365234375,-0.03279938921332359,9.514982223510742,2.3736953735351562
1711073767584203500,12.69320361328125,-0.03133150562644005,9.515048027038574,2.3734469413757324
1711073767603163600,12.71216357421875,-0.030192580074071884,9.514995574951172,2.3736753463745117
1711073767622123800,12.731123779296874,-0.03239893913269043,9.515240669250488,2.3726651668548584
1711073767641084000,12.750083984375,-0.03683943673968315,9.515477180480957,2.371650457382202
1711073767660044000,12.7690439453125,-0.03914940357208252,9.515331268310547,2.372194290161133
1711073767679004200,12.788004150390625,-0.038005247712135315,9.514808654785156,2.3743107318878174
1711073767697964300,12.80696435546875,-0.03587771952152252,9.514524459838867,2.375483512878418
1711073767716924400,12.82592431640625,-0.03531716763973236,9.514852523803711,2.3741743564605713
1711073767735884300,12.84488427734375,-0.03644817695021629,9.515580177307129,2.371243715286255
1711073767754844400,12.863844482421875,-0.03802735358476639,9.516180992126465,2.3688056468963623
1711073767773804500,12.882804443359374,-0.03858232870697975,9.516341209411621,2.368147850036621
1711073767792764700,12.9017646484375,-0.03815561905503273,9.51646614074707,2.36765718460083
1711073767811724800,12.920724853515624,-0.037638477981090546,9.516841888427734,2.366156578063965
1711073767830685000,12.939684814453125,-0.03779428452253342,9.517354965209961,2.3640902042388916
1711073767849645000,12.95864501953125,-0.037817806005477905,9.517847061157227,2.3621084690093994
1711073767868605200,12.977605224609375,-0.0377897173166275,9.518144607543945,2.360905170440674
1711073767887565300,12.9965654296875,-0.03898836299777031,9.51822280883789,2.360567569732666
1711073767906525400,13.015525390625,-0.0416051521897316,9.518335342407227,2.360077142715454
1711073767925485600,13.034485595703124,-0.04437246918678284,9.518498420715332,2.359367847442627
1711073767944445400,13.053445556640625,-0.04731849581003189,9.51845932006836,2.359469413757324
1711073767963405600,13.072405517578124,-0.04922877252101898,9.518562316894531,2.3590118885040283
1711073767982365700,13.09136572265625,-0.04774373397231102,9.518470764160156,2.359408140182495
1711073768001325800,13.110325927734374,-0.0443248525261879,9.518345832824707,2.359978199005127
1711073768020286000,13.129285888671875,-0.041836928576231,9.518309593200684,2.360171318054199
1711073768039246000,13.14824609375,-0.041475627571344376,9.518239974975586,2.3604626655578613
1711073768058206200,13.167206298828125,-0.04247624799609184,9.518301010131836,2.360199451446533
1711073768077166300,13.186166259765624,-0.043063145130872726,9.518533706665039,2.3592464923858643
1711073768096126500,13.20512646484375,-0.04345973581075668,9.518532752990723,2.3592424392700195
1711073768115086600,13.224086669921874,-0.04531588777899742,9.518542289733887,2.3591716289520264
1711073768134046500,13.24304638671875,-0.0500887855887413,9.518805503845215,2.358010768890381
1711073768153006600,13.262006591796874,-0.05356389656662941,9.518682479858398,2.3584344387054443
1711073768171966700,13.280966796875,-0.05393865704536438,9.518227577209473,2.360255718231201
1711073768190926800,13.2999267578125,-0.05163377523422241,9.517943382263184,2.3614583015441895
1711073768209887000,13.318886962890625,-0.050113845616579056,9.517932891845703,2.3615314960479736
1711073768228847000,13.33784716796875,-0.04990726709365845,9.518226623535156,2.3603515625
1711073768247807200,13.35680712890625,-0.05110089108347893,9.518574714660645,2.358916997909546
1711073768266767000,13.37576708984375,-0.05272731930017471,9.518731117248535,2.3582534790039062
1711073768285727200,13.394727294921875,-0.05376066267490387,9.51860237121582,2.358751058578491
1711073768304687400,13.413687255859376,-0.053897880017757416,9.518545150756836,2.3589770793914795
1711073768323647500,13.4326474609375,-0.05471961200237274,9.518632888793945,2.358602523803711
1711073768342607600,13.451607666015626,-0.05657679960131645,9.51872730255127,2.358180046081543
1711073768361567700,13.470567626953125,-0.057262029498815536,9.518757820129395,2.3580451011657715
1711073768380527900,13.48952783203125,-0.057151246815919876,9.518204689025879,2.3602776527404785
1711073768399488000,13.508488037109375,-0.05819258093833923,9.517570495605469,2.362804651260376
1711073768418448100,13.5274482421875,-0.060769230127334595,9.517218589782715,2.36415958404541
1711073768437408300,13.546408203125,-0.06277179718017578,9.517215728759766,2.3641207218170166
1711073768456368400,13.565368408203126,-0.06551548093557358,9.517437934875488,2.3631486892700195
1711073768475328300,13.584328369140625,-0.06791094690561295,9.517303466796875,2.3636245727539062
1711073768494288400,13.603288330078126,-0.0670054703950882,9.51696491241455,2.36501407623291
1711073768513248500,13.62224853515625,-0.06490247696638107,9.516512870788574,2.3668863773345947
1711073768532208600,13.641208740234376,-0.06366004049777985,9.51583480834961,2.369645118713379
1711073768551168800,13.660168701171875,-0.06365905702114105,9.515430450439453,2.371272087097168
1711073768570129000,13.67912890625,-0.06364109367132187,9.515671730041504,2.370304822921753
1711073768589088800,13.6980888671875,-0.06300024688243866,9.51640510559082,2.3673765659332275
1711073768608049000,13.717048828125,-0.06308338791131973,9.516980171203613,2.365053176879883
1711073768627009000,13.736009033203125,-0.06563477963209152,9.518152236938477,2.360266923904419
1711073768645969200,13.75496923828125,-0.07146763056516647,9.519076347351074,2.356365442276001
1711073768664929300,13.77392919921875,-0.07610359787940979,9.519692420959473,2.3537325859069824
1711073768683889400,13.792889404296876,-0.07870925217866898,9.519989013671875,2.352447748184204
1711073768702849500,13.811849609375,-0.08021893352270126,9.520525932312012,2.3502166271209717
1711073768721809700,13.8308095703125,-0.081907719373703,9.521445274353027,2.34643292427063
1711073768740769800,13.849769775390625,-0.08521994203329086,9.522536277770996,2.3418848514556885
1711073768759729700,13.868729736328126,-0.08892647176980972,9.523568153381348,2.33754825592041
1711073768778689800,13.887689697265625,-0.09175293892621994,9.524250984191895,2.3346550464630127
1711073768797650000,13.90664990234375,-0.09257745742797852,9.524704933166504,2.332771062850952
1711073768816610000,13.925610107421875,-0.09121844917535782,9.52497673034668,2.331713914871216
1711073768835570200,13.944570068359376,-0.09005903452634811,9.525558471679688,2.329383134841919
1711073768854530300,13.9635302734375,-0.09160157293081284,9.526300430297852,2.326287031173706
1711073768873490400,13.982490478515626,-0.09152069687843323,9.527012825012207,2.3233704566955566
1711073768892450600,14.001450439453125,-0.08866316825151443,9.527300834655762,2.322296142578125
1711073768911410400,14.020410400390626,-0.08610459417104721,9.527375221252441,2.322089672088623
1711073768930370600,14.03937060546875,-0.08575741201639175,9.527798652648926,2.320359706878662
1711073768949330700,14.05833056640625,-0.08634823560714722,9.528197288513184,2.3187012672424316
1711073768968290800,14.077290771484375,-0.08740183711051941,9.528351783752441,2.318028688430786
1711073768987251000,14.0962509765625,-0.08800886571407318,9.52791690826416,2.319794178009033
1711073769006211000,14.115211181640625,-0.08480188250541687,9.527356147766113,2.322216272354126
1711073769025171200,14.134171142578126,-0.07898712903261185,9.52702808380127,2.3237671852111816
1711073769044131000,14.153131103515625,-0.07485795766115189,9.52685260772705,2.324622869491577
1711073769063091200,14.17209130859375,-0.07272082567214966,9.526955604553223,2.3242671489715576
1711073769082051300,14.19105126953125,-0.071984201669693,9.527348518371582,2.322678327560425
1711073769101011500,14.210011474609376,-0.07213745266199112,9.52790641784668,2.3203842639923096
1711073769119971600,14.2289716796875,-0.0711439996957779,9.52803897857666,2.3198704719543457
1711073769138931700,14.247931640625,-0.06821750104427338,9.52794361114502,2.3203518390655518
1711073769157891600,14.2668916015625,-0.06793360412120819,9.528031349182129,2.3199985027313232
1711073769176851700,14.285851806640625,-0.06977710872888565,9.528353691101074,2.3186182975769043
1711073769195811800,14.304811767578125,-0.07022067904472351,9.528620719909668,2.3175084590911865
1711073769214772000,14.32377197265625,-0.06743770837783813,9.528879165649414,2.31653094291687
1711073769233732000,14.342732177734375,-0.06316306442022324,9.529029846191406,2.316028594970703
1711073769252692200,14.361692138671875,-0.0599699504673481,9.529292106628418,2.315033197402954
1711073769271652400,14.38065234375,-0.058050137013196945,9.52960205078125,2.3138084411621094
1711073769290612200,14.3996123046875,-0.05705159157514572,9.529937744140625,2.312448263168335
1711073769309572400,14.418572265625,-0.05550310015678406,9.53031063079834,2.310950756072998
1711073769328532500,14.437532470703125,-0.052933093160390854,9.530653953552246,2.309593677520752
1711073769347492600,14.45649267578125,-0.04963824152946472,9.531161308288574,2.3075711727142334
1711073769366452700,14.47545263671875,-0.04655032604932785,9.531964302062988,2.3043212890625
1711073769385412900,14.494412841796875,-0.04296121001243591,9.53292465209961,2.30041241645813
1711073769404372700,14.513372802734375,-0.03766700625419617,9.533990859985352,2.296082019805908
1711073769423332900,14.532332763671874,-0.031801048666238785,9.534708976745605,2.2931857109069824
1711073769442293000,14.55129296875,-0.02901322767138481,9.535836219787598,2.288532018661499
1711073769461253000,14.570253173828124,-0.027057727798819542,9.5372314453125,2.282735586166382
1711073769480213200,14.589213134765625,-0.023853721097111702,9.53884220123291,2.276024103164673
1711073769499173000,14.608173095703124,-0.022055214270949364,9.540474891662598,2.269195079803467
1711073769518133200,14.62713330078125,-0.020468298345804214,9.541542053222656,2.2647151947021484
1711073769537093400,14.64609326171875,-0.017962152138352394,9.542384147644043,2.261186361312866
1711073769556053500,14.665053466796875,-0.015600341372191906,9.54301643371582,2.258535623550415
1711073769575013600,14.684013671875,-0.014926726929843426,9.543295860290527,2.2573578357696533
1711073769593973500,14.702973388671875,-0.015328042209148407,9.543356895446777,2.2570993900299072
1711073769612933600,14.72193359375,-0.014999057166278362,9.543848037719727,2.255021810531616
1711073769631893800,14.740893798828125,-0.013902056962251663,9.54476261138916,2.2511544227600098
1711073769650854000,14.75985400390625,-0.012753932736814022,9.545836448669434,2.2466073036193848
1711073769669814000,14.77881396484375,-0.014971472322940826,9.54751968383789,2.239429235458374
1711073769688774000,14.79777392578125,-0.020058387890458107,9.54928207397461,2.2318577766418457
1711073769707734000,14.816734130859375,-0.022638186812400818,9.550555229187012,2.22637939453125
1711073769726694100,14.835694091796874,-0.02205383963882923,9.551664352416992,2.2216196060180664
1711073769745654300,14.854654296875,-0.019798021763563156,9.552978515625,2.21598744392395
1711073769764614400,14.873614501953124,-0.019453169777989388,9.55469799041748,2.208566665649414
1711073769783574500,14.892574462890625,-0.022004052996635437,9.55704402923584,2.1983654499053955
1711073769802534400,14.911534423828124,-0.025285890325903893,9.559903144836426,2.1858632564544678
1711073769821494500,14.93049462890625,-0.025191130116581917,9.562603950500488,2.174023151397705
1711073769840454700,14.94945458984375,-0.021933451294898987,9.564826011657715,2.164254903793335
1711073769859414800,14.968414794921875,-0.017665648832917213,9.566779136657715,2.1556456089019775
1711073769878375000,14.987375,-0.01527748815715313,9.568708419799805,2.147085428237915
1711073769897334800,15.006334716796875,-0.014366481453180313,9.57073974609375,2.138016700744629
1711073769916295000,15.025294921875,-0.012901217676699162,9.572903633117676,2.1283159255981445
1711073769935255000,15.044255126953125,-0.0083786491304636,9.574536323547363,2.120980978012085
1711073769954215000,15.06321484375,-0.002148590749129653,9.575305938720703,2.117520809173584
1711073769973175000,15.082175048828125,0.006862134672701359,9.575721740722656,2.1156299114227295
1711073769992135200,15.10113525390625,0.018060797825455666,9.575953483581543,2.114518404006958
1711073770011095300,15.12009521484375,0.03226069360971451,9.57623291015625,2.1130776405334473
1711073770030055400,15.139055419921876,0.04734550788998604,9.576536178588867,2.1114206314086914
1711073770049015600,15.158015625,0.06484781205654144,9.576828002929688,2.109631299972534
1711073770067975700,15.1769755859375,0.09004107862710953,9.577322959899902,2.1064581871032715
1711073770086935600,15.195935546875,0.1213240846991539,9.578387260437012,2.1000423431396484
1711073770105895700,15.214895751953126,0.15401890873908997,9.579834938049316,2.0912740230560303
1711073770124855800,15.233855712890625,0.18816162645816803,9.58187484741211,2.0791029930114746
1711073770143815700,15.252815673828126,0.22533200681209564,9.583663940429688,2.067124605178833
1711073770162775800,15.27177587890625,0.26349055767059326,9.584525108337402,2.0586023330688477
1711073770181736000,15.29073583984375,0.295443594455719,9.585126876831055,2.05145001411438
1711073770200696000,15.309696044921875,0.31230372190475464,9.586653709411621,2.041797161102295
1711073770219656200,15.32865625,0.3175019323825836,9.589395523071289,2.0280721187591553
1711073770238616000,15.347615966796875,0.32057249546051025,9.592498779296875,2.0128555297851562
1711073770257576200,15.366576171875,0.33005228638648987,9.595937728881836,1.9948503971099854
1711073770276536300,15.385536376953125,0.34351983666419983,9.599770545959473,1.9740300178527832
1711073770295496200,15.40449609375,0.3575247526168823,9.603934288024902,1.9511531591415405
1711073770314456300,15.423456298828125,0.3701874315738678,9.607332229614258,1.9319725036621094
1711073770333416400,15.44241650390625,0.38621169328689575,9.608741760253906,1.9218002557754517
1711073770352376600,15.46137646484375,0.4430711567401886,9.614008903503418,1.8827916383743286
1711073770371336700,15.480336669921876,0.5097312331199646,9.619148254394531,1.8391698598861694
1711073770390296600,15.499296630859375,0.5764893889427185,9.62513256072998,1.787419080734253
1711073770409256700,15.518256591796876,0.6370001435279846,9.632052421569824,1.7286345958709717
1711073770428216800,15.537216796875,0.6893033981323242,9.63895320892334,1.6690847873687744
1711073770447176700,15.5561767578125,0.7337270975112915,9.645387649536133,1.6119945049285889
1711073770466136800,15.57513671875,0.7738884091377258,9.651482582092285,1.555753469467163
1711073770485097000,15.594096923828126,0.8166384696960449,9.656744003295898,1.5002650022506714
1711073770504057000,15.61305712890625,0.8664281964302063,9.661016464233398,1.443769097328186
1711073770523017200,15.632017333984376,0.9186024069786072,9.664533615112305,1.3868428468704224
1711073770541977000,15.65097705078125,0.966587245464325,9.666988372802734,1.336197853088379
1711073770560937200,15.669937255859375,1.0049461126327515,9.668554306030273,1.2959707975387573
1711073770579897300,15.6888974609375,1.0300434827804565,9.670334815979004,1.262538194656372
1711073770598857200,15.707857177734375,1.043479084968567,9.67294979095459,1.2310837507247925
1711073770617817300,15.7268173828125,1.0485602617263794,9.676493644714355,1.1984883546829224
1711073770636777500,15.745777587890625,1.0450336933135986,9.68091106414795,1.1654361486434937
1711073770655737600,15.764737548828125,1.0320042371749878,9.685943603515625,1.1348339319229126
1711073770674697700,15.78369775390625,1.0090551376342773,9.691741943359375,1.1055954694747925
1711073770693657600,15.80265771484375,0.978476345539093,9.6981201171875,1.076776385307312
1711073770712617700,15.82161767578125,0.9479842782020569,9.702898025512695,1.060880184173584
1711073770731577900,15.840577880859374,0.9137996435165405,9.70543384552002,1.0676648616790771
1711073770750537700,15.859537841796875,0.8553586006164551,9.708268165588379,1.0900890827178955
1711073770769497900,15.878497802734374,0.7700705528259277,9.711485862731934,1.1244713068008423
1711073770788458000,15.8974580078125,0.6701993346214294,9.713446617126465,1.170546054840088
1711073770807418000,15.916418212890624,0.5699335336685181,9.712881088256836,1.2269845008850098
1711073770826378000,15.9353779296875,0.48799067735671997,9.708651542663574,1.2939577102661133
1711073770845338000,15.954338134765624,0.4317569136619568,9.700438499450684,1.3731181621551514
1711073770864298200,15.97329833984375,0.40652191638946533,9.688867568969727,1.4597872495651245
1711073770883258400,15.99225830078125,0.41523411870002747,9.674210548400879,1.5516507625579834
1711073770902218500,16.011218505859375,0.4439736008644104,9.655190467834473,1.6584796905517578
1711073770921178400,16.030178466796876,0.4666747450828552,9.630905151367188,1.7883687019348145
1711073770940138500,16.049138427734373,0.4616726040840149,9.602290153503418,1.9373363256454468
1711073770959098400,16.068098388671874,0.4254087209701538,9.571573257446289,2.091508388519287
1711073770978058500,16.08705859375,0.3647500276565552,9.540623664855957,2.2391605377197266
1711073770997018600,16.1060185546875,0.2903802990913391,9.510421752929688,2.374436140060425
1711073771015978800,16.124978759765625,0.21080191433429718,9.479574203491211,2.5027248859405518
1711073771034939000,16.14393896484375,0.1313869208097458,9.446736335754395,2.629124879837036
1711073771053898800,16.162898681640623,0.05411883816123009,9.412879943847656,2.750486373901367
1711073771072859000,16.18185888671875,-0.020004650577902794,9.381555557250977,2.8559420108795166
1711073771091819000,16.200819091796873,-0.08628102391958237,9.356401443481445,2.9361021518707275
1711073771110779000,16.21977880859375,-0.1407718062400818,9.338186264038086,2.9914612770080566
1711073771129739000,16.238739013671875,-0.1802048534154892,9.325051307678223,3.0300679206848145
1711073771148699100,16.25769921875,-0.20610007643699646,9.31562328338623,3.0572965145111084
1711073771167659300,16.2766591796875,-0.22342537343502045,9.31027603149414,3.0723321437835693
1711073771186619400,16.295619384765626,-0.2356632649898529,9.309407234191895,3.0740511417388916
1711073771205579300,16.314579345703127,-0.24530258774757385,9.31179141998291,3.0660648345947266
1711073771224539400,16.333539306640624,-0.25410956144332886,9.315886497497559,3.0528767108917236
1711073771243499500,16.35249951171875,-0.2615559995174408,9.322335243225098,3.032496929168701
1711073771262459400,16.37145947265625,-0.2685947120189667,9.33367919921875,2.9967782497406006
1711073771281419500,16.39041943359375,-0.2719874083995819,9.352110862731934,2.938441514968872
1711073771300379600,16.409379638671876,-0.26307857036590576,9.37838077545166,2.854321002960205
1711073771319339800,16.42833984375,-0.23464860022068024,9.410409927368164,2.7494571208953857
1711073771338300000,16.4472998046875,-0.20219410955905914,9.440311431884766,2.647645950317383
1711073771357259800,16.466259765625,-0.1948084682226181,9.462908744812012,2.5662808418273926
1711073771376220000,16.485219970703124,-0.21614593267440796,9.487804412841797,2.470879316329956
1711073771395180000,16.504179931640625,-0.23669685423374176,9.524179458618164,2.3247311115264893
1711073771414140200,16.52314013671875,-0.20865705609321594,9.569034576416016,2.1355135440826416
1711073771433100000,16.54210009765625,-0.11878389120101929,9.608270645141602,1.958930492401123
1711073771452060200,16.56106005859375,0.012677747756242752,9.63207721710205,1.8420989513397217
1711073771471020300,16.580020263671877,0.1542997509241104,9.644229888916016,1.7707043886184692
1711073771489980400,16.59898046875,0.2893102467060089,9.65255069732666,1.7073264122009277
1711073771508940500,16.6179404296875,0.42507392168045044,9.659436225891113,1.6385985612869263
1711073771527900700,16.636900634765624,0.5709760785102844,9.664201736450195,1.5644800662994385
1711073771546860500,16.655860595703125,0.722510039806366,9.665773391723633,1.4903674125671387
1711073771565820700,16.674820556640626,0.8660494089126587,9.663991928100586,1.423940658569336
1711073771584780800,16.69378076171875,0.9850031137466431,9.65898609161377,1.3799076080322266
1711073771603741000,16.712740966796876,1.0716629028320312,9.652261734008789,1.3622689247131348
1711073771622701000,16.731701171875,1.1136772632598877,9.647733688354492,1.3606421947479248
1711073771641661000,16.750660888671874,1.1041983366012573,9.647777557373047,1.368033528327942
1711073771660621000,16.76962109375,1.0523008108139038,9.6517915725708,1.3805663585662842
1711073771679581200,16.788581298828124,0.9789043068885803,9.65851879119873,1.3875000476837158
1711073771698541300,16.807541259765625,0.9060748219490051,9.66683292388916,1.3790397644042969
1711073771717501200,16.826501220703125,0.8445119261741638,9.675286293029785,1.3586795330047607
1711073771736461300,16.84546142578125,0.795139491558075,9.682342529296875,1.3380509614944458
1711073771755421400,16.86442138671875,0.756681501865387,9.687255859375,1.3247250318527222
1711073771774381600,16.883381591796876,0.7261556386947632,9.689895629882812,1.3225075006484985
1711073771793341700,16.902341796875,0.6930238604545593,9.690394401550293,1.3365527391433716
1711073771812301800,16.9213017578125,0.644103467464447,9.689873695373535,1.3645015954971313
1711073771831261700,16.94026171875,0.5739403963088989,9.689372062683105,1.3989489078521729
1711073771850221800,16.959221923828125,0.4844857454299927,9.689282417297363,1.4329943656921387
1711073771869182000,16.978181884765625,0.38236528635025024,9.68997859954834,1.458936095237732
1711073771888142000,16.99714208984375,0.2750680148601532,9.690560340881348,1.4791104793548584
1711073771907102200,17.016102294921875,0.16353051364421844,9.688122749328613,1.511263370513916
1711073771926062300,17.035062255859376,0.0404510423541069,9.677885055541992,1.583446979522705
1711073771945022500,17.0540224609375,-0.09830969572067261,9.659353256225586,1.6904547214508057
1711073771963982600,17.072982666015626,-0.2482563853263855,9.640870094299316,1.7783056497573853
1711073771982942500,17.0919423828125,-0.3686372637748718,9.62745189666748,1.8293912410736084
1711073772001902600,17.110902587890624,-0.4423716068267822,9.61901569366455,1.8572089672088623
1711073772020862700,17.12986279296875,-0.47793588042259216,9.606976509094238,1.909965991973877
1711073772039822800,17.14882275390625,-0.48752111196517944,9.587153434753418,2.004793882369995
1711073772058783000,17.167782958984375,-0.481998085975647,9.563045501708984,2.1180670261383057
1711073772077743000,17.1867431640625,-0.46070951223373413,9.538154602050781,2.231982469558716
1711073772096703200,17.205703125,-0.4255235493183136,9.513927459716797,2.339763641357422
1711073772115663400,17.224663330078126,-0.383597731590271,9.491081237792969,2.4377472400665283
1711073772134623500,17.24362353515625,-0.3455755412578583,9.468756675720215,2.528559446334839
1711073772153583400,17.262583251953124,-0.3149131238460541,9.445366859436035,2.618445634841919
1711073772172543500,17.28154345703125,-0.2858450710773468,9.41966438293457,2.7126729488372803
1711073772191503600,17.300503662109374,-0.25788453221321106,9.390299797058105,2.8153393268585205
1711073772210463700,17.319463623046875,-0.23742859065532684,9.355765342712402,2.929790496826172
1711073772229423900,17.338423828125,-0.2337041199207306,9.315397262573242,3.056002616882324
1711073772248384000,17.357384033203125,-0.24868717789649963,9.269510269165039,3.1913514137268066
1711073772267344100,17.37634423828125,-0.2821211516857147,9.219451904296875,3.330538511276245
1711073772286304300,17.39530419921875,-0.33543235063552856,9.1681547164917,3.4645087718963623
1711073772305264400,17.414264404296876,-0.4069235622882843,9.12114143371582,3.5790467262268066
1711073772324224500,17.433224609375,-0.4900546967983246,9.084925651550293,3.659830093383789
1711073772343184600,17.4521845703125,-0.5761309266090393,9.06452751159668,3.697674036026001
1711073772362144500,17.47114453125,-0.6571611166000366,9.06186294555664,3.6906850337982178
1711073772381104600,17.490104736328124,-0.7229680418968201,9.075220108032227,3.645282506942749
1711073772400064800,17.509064697265625,-0.7664130330085754,9.10149097442627,3.570136070251465
1711073772419025000,17.52802490234375,-0.7751033306121826,9.136517524719238,3.4775912761688232
1711073772437985000,17.546985107421875,-0.7378137707710266,9.178656578063965,3.3731701374053955
1711073772456945200,17.565945068359376,-0.6634553074836731,9.224481582641602,3.2617745399475098
1711073772475905300,17.5849052734375,-0.5868324637413025,9.267058372497559,3.153989315032959
1711073772494865400,17.603865478515626,-0.5410418510437012,9.310698509216309,3.031262159347534
1711073772513825500,17.622825439453123,-0.5029258131980896,9.369418144226074,2.8515706062316895
1711073772532785700,17.64178564453125,-0.42620107531547546,9.437614440917969,2.630625009536743
1711073772551745500,17.66074560546875,-0.3124866783618927,9.494491577148438,2.434619188308716
1711073772570705700,17.67970556640625,-0.18985091149806976,9.529775619506836,2.3060178756713867
1711073772589665800,17.698665771484375,-0.09360799938440323,9.551932334899902,2.2186033725738525
1711073772608626000,17.7176259765625,-0.03630359470844269,9.572689056396484,2.1290109157562256
1711073772627586000,17.7365859375,0.004181812051683664,9.594257354736328,2.0299220085144043
1711073772646546200,17.755546142578126,0.05278604477643967,9.61405086517334,1.9332897663116455
1711073772665506300,17.77450634765625,0.12284354865550995,9.630852699279785,1.844446063041687
1711073772684466400,17.793466552734376,0.2122652530670166,9.645147323608398,1.7596796751022339
1711073772703426600,17.812426513671873,0.3104437589645386,9.656821250915527,1.6792278289794922
1711073772722386700,17.83138671875,0.4041866362094879,9.664712905883789,1.6125578880310059
1711073772741346800,17.850346923828123,0.4819663465023041,9.669252395629883,1.5632184743881226
1711073772760306700,17.869306640625,0.5352664589881897,9.672159194946289,1.527489423751831
1711073772779267000,17.88826708984375,0.5607699155807495,9.674962043762207,1.5003397464752197
1711073772798227200,17.907227294921874,0.5636554956436157,9.678178787231445,1.4783600568771362
1711073772817187300,17.926187255859375,0.5578320622444153,9.681292533874512,1.4600639343261719
1711073772836147500,17.9451474609375,0.5573167204856873,9.68479061126709,1.4368786811828613
1711073772855107300,17.964107421875,0.571466326713562,9.689411163330078,1.399683952331543
1711073772874067500,17.9830673828125,0.6001538634300232,9.694029808044434,1.3549906015396118
1711073772893027600,18.002027587890623,0.6335914731025696,9.697466850280762,1.3145654201507568
1711073772911987700,18.02098779296875,0.6578914523124695,9.69924259185791,1.2892886400222778
1711073772930947800,18.03994775390625,0.6572567820549011,9.699111938476562,1.2905960083007812
1711073772949908000,18.058907958984374,0.6216601729393005,9.697915077209473,1.3169578313827515
1711073772968868000,18.0778681640625,0.5548388957977295,9.69718074798584,1.3517537117004395
1711073772987828200,18.096828125,0.4673379063606262,9.698989868164062,1.3717052936553955
1711073773006788400,18.115788330078125,0.3669047951698303,9.703736305236816,1.3686736822128296
1711073773025748500,18.13474853515625,0.25698035955429077,9.707472801208496,1.3672363758087158
1711073773044708400,18.153708251953127,0.15356339514255524,9.70499324798584,1.3999695777893066
1711073773063668500,18.17266845703125,0.060474295169115067,9.696114540100098,1.4670008420944214
1711073773082628600,18.191628662109373,-0.03861014544963837,9.68517017364502,1.5383034944534302
1711073773101588700,18.210588623046874,-0.1332583874464035,9.672386169433594,1.6117055416107178
1711073773120548900,18.229548828125,-0.19933253526687622,9.657570838928223,1.6917415857315063
1711073773139509000,18.248509033203124,-0.23074354231357574,9.641847610473633,1.7753673791885376
1711073773158469000,18.26746923828125,-0.23498320579528809,9.624865531921387,1.8647065162658691
1711073773177429200,18.28642919921875,-0.22675898671150208,9.606553077697754,1.957832932472229
1711073773196389400,18.305389404296875,-0.21439170837402344,9.587605476379395,2.049936294555664
1711073773215349500,18.324349609375,-0.19291779398918152,9.56757926940918,2.143501043319702
1711073773234309600,18.3433095703125,-0.15320727229118347,9.545915603637695,2.2410731315612793
1711073773253269800,18.362269775390626,-0.09721269458532333,9.521114349365234,2.3471930027008057
1711073773272230000,18.38122998046875,-0.03698549419641495,9.490318298339844,2.470398426055908
1711073773291190000,18.40018994140625,0.01531174872070551,9.451925277709961,2.6136627197265625
1711073773310150100,18.419150146484377,0.05116387829184532,9.406281471252441,2.773016929626465
1711073773329110000,18.438110107421874,0.06595336645841599,9.355253219604492,2.94028639793396
1711073773348070100,18.457070068359375,0.058493614196777344,9.301582336425781,3.106049060821533
1711073773367030300,18.4760302734375,0.02955109253525734,9.249616622924805,3.2579293251037598
1711073773385990400,18.494990478515625,-0.012263152748346329,9.2044038772583,3.3836636543273926
1711073773404950500,18.513950439453126,-0.0544879324734211,9.17224407196045,3.4694907665252686
1711073773423910700,18.53291064453125,-0.0937768965959549,9.156554222106934,3.5098609924316406
1711073773442870800,18.551870849609376,-0.12976545095443726,9.154147148132324,3.5149881839752197
1711073773461831000,18.570830810546877,-0.15324021875858307,9.15920639038086,3.5008351802825928
1711073773480791000,18.589791015625,-0.16087718307971954,9.168325424194336,3.4765374660491943
1711073773499751200,18.608751220703127,-0.15498480200767517,9.180927276611328,3.443389654159546
1711073773518711300,18.627711181640624,-0.13379929959774017,9.199783325195312,3.3935904502868652
1711073773537671200,18.646671142578125,-0.08975814282894135,9.229043006896973,3.314678907394409
1711073773556631300,18.66563134765625,-0.025876356288790703,9.266806602478027,3.208740234375
1711073773575591400,18.68459130859375,0.026432568207383156,9.302167892456055,3.104734182357788
1711073773594551600,18.703551513671876,0.024864094331860542,9.335942268371582,3.0016589164733887
1711073773613511700,18.72251171875,-0.017986105754971504,9.385980606079102,2.841381311416626
1711073773632471800,18.741471923828126,-0.031716302037239075,9.450664520263672,2.618074893951416
1711073773651432000,18.760431884765627,0.004838606342673302,9.506815910339355,2.406409502029419
1711073773670392000,18.77939208984375,0.06779588758945465,9.542311668395996,2.2605507373809814
1711073773689352200,18.798352294921877,0.1373097151517868,9.569023132324219,2.1413347721099854
1711073773708312300,18.817312255859374,0.21381692588329315,9.596957206726074,2.0057625770568848
1711073773727272400,18.8362724609375,0.3165164589881897,9.6207275390625,1.873982548713684
1711073773746232300,18.855232421875,0.4512222111225128,9.636655807495117,1.76115083694458
1711073773765192400,18.8741923828125,0.6129627823829651,9.645102500915527,1.6633317470550537
1711073773784152600,18.893152587890626,0.7897973656654358,9.647170066833496,1.574393630027771
1711073773803112700,18.91211279296875,0.9599440693855286,9.645133972167969,1.4900625944137573
1711073773822072800,18.93107275390625,1.1009540557861328,9.64084529876709,1.4185874462127686
1711073773841033000,18.950032958984377,1.1998839378356934,9.636201858520508,1.3690470457077026
1711073773859993000,18.9689931640625,1.2521599531173706,9.63371753692627,1.3393936157226562
1711073773878953200,18.987953125,1.2623950242996216,9.635272026062012,1.31844162940979
1711073773897913300,19.006913330078124,1.2380242347717285,9.641226768493652,1.2978509664535522
1711073773916873500,19.02587353515625,1.1993707418441772,9.649328231811523,1.273711919784546
1711073773935833600,19.04483349609375,1.1634029150009155,9.65774917602539,1.2428840398788452
1711073773954793500,19.06379345703125,1.1350271701812744,9.665843963623047,1.2056317329406738
1711073773973753600,19.082753662109376,1.1173217296600342,9.672327995300293,1.1696364879608154
1711073773992713700,19.101713623046876,1.1051273345947266,9.676774978637695,1.1441655158996582
1711073774011673900,19.120673828125,1.088463544845581,9.679933547973633,1.1333693265914917
1711073774030634000,19.139634033203127,1.0596046447753906,9.68313217163086,1.1333904266357422
1711073774049594000,19.158593994140624,1.0077697038650513,9.68781852722168,1.1405973434448242
1711073774068554000,19.177553955078125,0.9222043752670288,9.695047378540039,1.1515170335769653
1711073774087514000,19.19651416015625,0.8022906184196472,9.704055786132812,1.165341854095459
1711073774106474200,19.21547412109375,0.6584364771842957,9.712679862976074,1.1835143566131592
1711073774125434400,19.234434326171876,0.5035948157310486,9.718198776245117,1.2138323783874512
1711073774144394500,19.25339453125,0.34593304991722107,9.718499183654785,1.2655085325241089
1711073774163354600,19.272354736328126,0.18316757678985596,9.714181900024414,1.3309810161590576
1711073774182314800,19.291314697265626,0.02554294653236866,9.705767631530762,1.40278959274292
1711073774201275000,19.31027490234375,-0.10668859630823135,9.692168235778809,1.490260362625122
1711073774220234800,19.32923486328125,-0.21246221661567688,9.672686576843262,1.6013623476028442
1711073774239195000,19.34819482421875,-0.28480392694473267,9.648002624511719,1.7335867881774902
1711073774258155000,19.367155029296875,-0.32616791129112244,9.622001647949219,1.865769863128662
1711073774277115100,19.386115234375,-0.35293906927108765,9.599416732788086,1.9740828275680542
1711073774296075300,19.4050751953125,-0.36857518553733826,9.580547332763672,2.060987710952759
1711073774315035400,19.424035400390625,-0.36011916399002075,9.561670303344727,2.148289203643799
1711073774333995500,19.44299560546875,-0.3288390040397644,9.540696144104004,2.2444052696228027
1711073774352955600,19.46195556640625,-0.2853699028491974,9.5178804397583,2.3449747562408447
1711073774371915500,19.48091552734375,-0.23966853320598602,9.49266529083252,2.449950695037842
1711073774390875600,19.499875732421874,-0.1959410160779953,9.462919235229492,2.566153049468994
1711073774409835800,19.518835693359375,-0.15468311309814453,9.426431655883789,2.6997859477996826
1711073774428796000,19.5377958984375,-0.12411170452833176,9.382674217224121,2.8496341705322266
1711073774447756000,19.556756103515625,-0.11371428519487381,9.333362579345703,3.0076229572296143
1711073774466716200,19.575716064453125,-0.12742210924625397,9.280232429504395,3.1672465801239014
1711073774485676300,19.59467626953125,-0.16717831790447235,9.227849006652832,3.315004825592041
1711073774504636200,19.61363623046875,-0.2305646687746048,9.183660507202148,3.4318530559539795
1711073774523596300,19.63259619140625,-0.30934587121009827,9.153793334960938,3.504676342010498
1711073774542556400,19.651556396484374,-0.3890254497528076,9.13870906829834,3.535966634750366
1711073774561516500,19.6705166015625,-0.4496745765209198,9.138406753540039,3.5295474529266357
1711073774580476700,19.6894765625,-0.48228052258491516,9.157164573669434,3.4762256145477295
1711073774599436800,19.708436767578124,-0.4979548156261444,9.195535659790039,3.3711342811584473
1711073774618397000,19.72739697265625,-0.5075883269309998,9.243776321411133,3.2350151538848877
1711073774637356800,19.746356689453126,-0.4961007535457611,9.293475151062012,3.0912129878997803
1711073774656317000,19.76531689453125,-0.4646322727203369,9.3381986618042,2.9584686756134033
1711073774675277000,19.784277099609376,-0.4480036795139313,9.37095832824707,2.8556623458862305
1711073774694237200,19.8032373046875,-0.4631589651107788,9.401941299438477,2.749431848526001
1711073774713197300,19.822197265625,-0.472430020570755,9.450213432312012,2.5769495964050293
1711073774732157200,19.8411572265625,-0.43072718381881714,9.512965202331543,2.342724561691284
1711073774751117300,19.860117431640624,-0.3397914171218872,9.568042755126953,2.123084783554077
1711073774770077400,19.879077392578125,-0.21503880620002747,9.603133201599121,1.9758458137512207
1711073774789037600,19.89803759765625,-0.08343056589365005,9.624159812927246,1.8812142610549927
1711073774807997700,19.916997802734375,0.02634613960981369,9.642533302307129,1.7864060401916504
1711073774826957600,19.93595751953125,0.1261070817708969,9.66120433807373,1.6779778003692627
1711073774845917700,19.954917724609373,0.23693965375423431,9.67788314819336,1.566148042678833
1711073774864877800,19.9738779296875,0.36410194635391235,9.689312934875488,1.4679982662200928
1711073774883838000,19.992837890625,0.5076314806938171,9.693544387817383,1.395673155784607
1711073774902798000,20.011798095703124,0.6636267304420471,9.69057846069336,1.3500617742538452
1711073774921758000,20.030758056640625,0.8200483918190002,9.682690620422363,1.3203785419464111
1711073774940718000,20.049718017578126,0.9505377411842346,9.674034118652344,1.2961208820343018
1711073774959678200,20.06867822265625,1.0365302562713623,9.668246269226074,1.273179054260254
1711073774978638300,20.087638427734376,1.0757074356079102,9.667141914367676,1.2488441467285156
1711073774997598500,20.106598388671873,1.078282117843628,9.669947624206543,1.2246594429016113
1711073775016558600,20.12555859375,1.0581943988800049,9.675802230834961,1.1956055164337158
1711073775035518500,20.1445185546875,1.0221902132034302,9.683727264404297,1.1623014211654663
1711073775054478600,20.163478515625,0.9675836563110352,9.692561149597168,1.135093331336975
1711073775073438700,20.182438720703125,0.8913275003433228,9.701333999633789,1.1225146055221558
1711073775092398800,20.20139892578125,0.8041757345199585,9.70882797241211,1.123544454574585
1711073775111359000,20.22035888671875,0.7209509611129761,9.714982986450195,1.1268216371536255
1711073775130318800,20.23931884765625,0.6426790356636047,9.720856666564941,1.1235246658325195
1711073775149279000,20.258279052734373,0.5596123933792114,9.726835250854492,1.1161936521530151
1711073775168239000,20.277239013671874,0.4661023020744324,9.73243236541748,1.1103577613830566
1711073775187199200,20.29619921875,0.3645540475845337,9.737217903137207,1.1063711643218994
1711073775206159000,20.3151591796875,0.2590540647506714,9.740877151489258,1.1038976907730103
1711073775225119200,20.334119140625,0.15333124995231628,9.741405487060547,1.1188769340515137
1711073775244079400,20.353079345703126,0.04949244484305382,9.738082885742188,1.1565834283828735
1711073775263039500,20.37203955078125,-0.06413018703460693,9.732492446899414,1.2020268440246582
1711073775281999600,20.39099951171875,-0.17432187497615814,9.724464416503906,1.2549066543579102
1711073775300959700,20.409959716796877,-0.25910842418670654,9.714189529418945,1.3182488679885864
1711073775319919600,20.428919677734374,-0.3045494854450226,9.703152656555176,1.3879777193069458
1711073775338879700,20.447879638671875,-0.3034467101097107,9.690787315368652,1.472050428390503
1711073775357840000,20.46683984375,-0.26633667945861816,9.676107406616211,1.5723856687545776
1711073775376800000,20.485800048828125,-0.20873728394508362,9.658561706542969,1.6849336624145508
1711073775395759900,20.504759765625,-0.14149543642997742,9.636717796325684,1.8121875524520874
1711073775414720000,20.523719970703127,-0.07231078296899796,9.611603736877441,1.944795846939087
1711073775433680100,20.54268017578125,-0.007244778797030449,9.584943771362305,2.0734496116638184
1711073775452640300,20.56164013671875,0.05615473538637161,9.556548118591309,2.199913263320923
1711073775471600000,20.58060009765625,0.12195155024528503,9.524547576904297,2.3320605754852295
1711073775490560300,20.599560302734375,0.18885350227355957,9.487545013427734,2.4741063117980957
1711073775509520400,20.618520263671876,0.2478569597005844,9.445890426635742,2.6237590312957764
1711073775528480500,20.63748046875,0.28755825757980347,9.401049613952637,2.776320457458496
1711073775547440400,20.6564404296875,0.3002329468727112,9.354120254516602,2.929279327392578
1711073775566400500,20.675400390625,0.2819894552230835,9.30653190612793,3.0788512229919434
1711073775585360600,20.694360595703124,0.23091423511505127,9.260266304016113,3.2193987369537354
1711073775604320800,20.71332080078125,0.1502103954553604,9.21799373626709,3.3431122303009033
1711073775623280600,20.73228076171875,0.04811573773622513,9.182580947875977,3.442133903503418
1711073775642240800,20.75124072265625,-0.0661386027932167,9.155177116394043,3.5140793323516846
1711073775661201000,20.770200927734376,-0.18465439975261688,9.136697769165039,3.557673454284668
1711073775680161000,20.7891611328125,-0.29235976934432983,9.130915641784668,3.565289258956909
1711073775699121200,20.80812109375,-0.37737470865249634,9.143658638000488,3.524411916732788
1711073775718081000,20.8270810546875,-0.4350340664386749,9.174497604370117,3.43652606010437
1711073775737041200,20.846041259765624,-0.45106184482574463,9.215383529663086,3.323195219039917
1711073775756001300,20.865001220703125,-0.4398249089717865,9.249574661254883,3.2283589839935303
1711073775774961400,20.88396142578125,-0.4507768154144287,9.271707534790039,3.162693977355957
1711073775793921300,20.90292138671875,-0.4978848993778229,9.306207656860352,3.052375316619873
1711073775812881400,20.92188134765625,-0.49810442328453064,9.373069763183594,2.8403961658477783
1711073775831841500,20.940841552734376,-0.4094593822956085,9.44308853149414,2.6135802268981934
1711073775850801400,20.959801513671874,-0.2720906734466553,9.49018383026123,2.4561703205108643
1711073775869761500,20.978761474609374,-0.11585122346878052,9.520245552062988,2.3498716354370117
1711073775888721700,20.9977216796875,0.0245756097137928,9.550495147705078,2.226616621017456
1711073775907681800,21.016681884765624,0.1368316411972046,9.581913948059082,2.0829319953918457
1711073775926642000,21.035641845703125,0.23364605009555817,9.60698127746582,1.954919695854187
1711073775945601800,21.054601806640626,0.32790607213974,9.626155853271484,1.8439077138900757
1711073775964562000,21.07356201171875,0.4190048575401306,9.642500877380371,1.736948847770691
1711073775983522000,21.09252197265625,0.5054954886436462,9.656829833984375,1.6311030387878418
1711073776002482000,21.11148193359375,0.5861824750900269,9.668255805969238,1.533493995666504
1711073776021442000,21.130442138671874,0.6515892744064331,9.676346778869629,1.4540055990219116
1711073776040402200,21.149402099609375,0.6939466595649719,9.682579040527344,1.391579031944275
1711073776059362300,21.1683623046875,0.704262375831604,9.689311981201172,1.338524580001831
1711073776078322400,21.187322509765625,0.6945043206214905,9.696293830871582,1.2922680377960205
1711073776097282600,21.206282470703126,0.6910187602043152,9.702251434326172,1.2486810684204102
1711073776116242400,21.225242431640623,0.7049883008003235,9.707221031188965,1.2013534307479858
1711073776135202600,21.24420263671875,0.7265536189079285,9.711434364318848,1.1534925699234009
1711073776154162700,21.26316259765625,0.7430546879768372,9.715072631835938,1.1115894317626953
1711073776173122600,21.28212255859375,0.7453802227973938,9.718009948730469,1.084011197090149
1711073776192082700,21.301082763671875,0.7302932143211365,9.719804763793945,1.0781668424606323
1711073776211042800,21.320042724609376,0.6987569332122803,9.720500946044922,1.092698335647583
1711073776230003000,21.3390029296875,0.6510565876960754,9.721580505371094,1.1123837232589722
1711073776248963000,21.357963134765626,0.587446928024292,9.724769592285156,1.119884967803955
1711073776267923000,21.3769228515625,0.5067378282546997,9.730154991149902,1.1125186681747437
1711073776286883000,21.395883056640624,0.4069223999977112,9.736034393310547,1.102008581161499
1711073776305843200,21.41484326171875,0.28542858362197876,9.740259170532227,1.1028456687927246
1711073776324803300,21.43380322265625,0.15155956149101257,9.739327430725098,1.1370675563812256
1711073776343763200,21.45276318359375,0.011197755113244057,9.732355117797852,1.2047889232635498
1711073776362723300,21.471723388671876,-0.13504940271377563,9.7218017578125,1.2801233530044556
1711073776381683500,21.490683349609377,-0.265996515750885,9.70852279663086,1.3580156564712524
1711073776400643600,21.5096435546875,-0.3551994264125824,9.694273948669434,1.4371088743209839
1711073776419603500,21.528603515625,-0.3888118267059326,9.680529594421387,1.5187389850616455
1711073776438563600,21.5475634765625,-0.37057775259017944,9.666739463806152,1.6084837913513184
1711073776457523700,21.566523681640625,-0.313014417886734,9.65169620513916,1.7079706192016602
1711073776476483800,21.58548388671875,-0.23011362552642822,9.634714126586914,1.8137575387954712
1711073776495444000,21.60444384765625,-0.14097434282302856,9.614479064941406,1.9267324209213257
1711073776514404000,21.623404052734376,-0.062428057193756104,9.590234756469727,2.047898292541504
1711073776533364200,21.6423642578125,0.0004621163825504482,9.562662124633789,2.173903703689575
1711073776552324000,21.661323974609374,0.04880525916814804,9.532628059387207,2.301523447036743
1711073776571284200,21.6802841796875,0.08364072442054749,9.499711990356445,2.432870864868164
1711073776590244400,21.699244384765624,0.10574056953191757,9.463013648986816,2.5711066722869873
1711073776609204500,21.71820458984375,0.1145629957318306,9.422262191772461,2.716292381286621
1711073776628164600,21.73716455078125,0.11109264194965363,9.378174781799316,2.8649418354034424
1711073776647124700,21.756124755859375,0.09514716267585754,9.332693099975586,3.0103464126586914
1711073776666084600,21.775084716796876,0.06374657899141312,9.287602424621582,3.147502899169922
1711073776685044700,21.794044677734377,0.014313388615846634,9.245879173278809,3.268625259399414
1711073776704004900,21.8130048828125,-0.053043290972709656,9.210586547851562,3.366403102874756
1711073776722965000,21.831965087890627,-0.1324569433927536,9.183732986450195,3.436844825744629
1711073776741925000,21.850925048828124,-0.2158118337392807,9.165264129638672,3.4816300868988037
1711073776760885200,21.86988525390625,-0.29863232374191284,9.153759002685547,3.5056943893432617
1711073776779845000,21.88884521484375,-0.3769747316837311,9.150376319885254,3.506976366043091
1711073776798805200,21.90780517578125,-0.4490863084793091,9.159310340881348,3.4750146865844727
1711073776817765400,21.926765380859376,-0.5111565589904785,9.183323860168457,3.4023022651672363
1711073776836725500,21.9457255859375,-0.5501641035079956,9.220257759094238,3.294626474380493
1711073776855685600,21.964685546875,-0.5471333265304565,9.264517784118652,3.1685547828674316
1711073776874645800,21.983645751953127,-0.5268873572349548,9.305788040161133,3.04878568649292
1711073776893606000,22.00260595703125,-0.5377297401428223,9.34039306640625,2.939098358154297
1711073776912565800,22.021565673828125,-0.5810932517051697,9.379477500915527,2.803234815597534
1711073776931526000,22.04052587890625,-0.6023434996604919,9.433279037475586,2.6116693019866943
1711073776950486000,22.059486083984375,-0.552422821521759,9.494668006896973,2.390921115875244
1711073776969446100,22.078446044921876,-0.43812471628189087,9.547438621520996,2.1965553760528564
1711073776988406300,22.09740625,-0.3000054657459259,9.58211612701416,2.0648088455200195
1711073777007366400,22.116366455078126,-0.17970001697540283,9.60414981842041,1.9744371175765991
1711073777026326300,22.135326171875,-0.08668433129787445,9.62170696258545,1.8935694694519043
1711073777045286400,22.154286376953124,-0.0050893123261630535,9.637860298156738,1.8116365671157837
1711073777064246500,22.17324658203125,0.0787542536854744,9.653291702270508,1.725727915763855
1711073777083206700,22.19220654296875,0.17037616670131683,9.666668891906738,1.6422189474105835
1711073777102166800,22.211166748046875,0.2717510759830475,9.676447868347168,1.5693634748458862
1711073777121127000,22.230126953125,0.3764803409576416,9.682393074035645,1.5099343061447144
1711073777140087000,22.249087158203125,0.47657278180122375,9.685959815979004,1.457888126373291
1711073777159047200,22.268047119140626,0.559846043586731,9.688322067260742,1.411867380142212
1711073777178007300,22.28700732421875,0.6147079467773438,9.689570426940918,1.3801251649856567
1711073777196967400,22.305967529296876,0.643373429775238,9.690664291381836,1.35922110080719
1711073777215927600,22.324927490234376,0.6624289751052856,9.692217826843262,1.3388433456420898
1711073777234887400,22.343887451171874,0.6900014281272888,9.694704055786133,1.306520938873291
1711073777253847600,22.36284765625,0.7298740744590759,9.697901725769043,1.2603076696395874
1711073777272807700,22.3818076171875,0.7746856212615967,9.700800895690918,1.2102558612823486
1711073777291767800,22.400767822265625,0.8138602375984192,9.703264236450195,1.1639026403427124
1711073777310728000,22.41972802734375,0.8363924622535706,9.704848289489746,1.1343451738357544
1711073777329688000,22.43868798828125,0.837587833404541,9.705313682556152,1.1294788122177124
1711073777348648200,22.457648193359375,0.8170806765556335,9.705615997314453,1.1418312788009644
1711073777367608300,22.4766083984375,0.7742850184440613,9.708586692810059,1.1463950872421265
1711073777386568400,22.495568359375,0.7089030146598816,9.71535873413086,1.1312222480773926
1711073777405528600,22.514528564453126,0.6248952150344849,9.72439193725586,1.1027657985687256
1711073777424488700,22.53348876953125,0.5293774008750916,9.733521461486816,1.0717813968658447
1711073777443448600,22.552448486328124,0.42532044649124146,9.740682601928711,1.052898645401001
1711073777462408700,22.57140869140625,0.3146176338195801,9.743230819702148,1.0681146383285522
1711073777481368800,22.590368896484375,0.19133280217647552,9.741668701171875,1.1107045412063599
1711073777500329000,22.609328857421875,0.057243965566158295,9.737531661987305,1.1608538627624512
1711073777519289000,22.6282890625,-0.06604570150375366,9.730108261108398,1.2210693359375
1711073777538249200,22.647249267578125,-0.16919907927513123,9.720296859741211,1.2874796390533447
1711073777557209300,22.666209228515626,-0.24299569427967072,9.708165168762207,1.3648680448532104
1711073777576169500,22.68516943359375,-0.2852194905281067,9.69347095489502,1.4579594135284424
1711073777595129600,22.704129638671876,-0.29838138818740845,9.676941871643066,1.5614540576934814
1711073777614089700,22.72308984375,-0.28368058800697327,9.657276153564453,1.681351661682129
1711073777633049600,22.742049560546874,-0.2490142285823822,9.632997512817383,1.8203716278076172
1711073777652009700,22.761009765625,-0.2077917754650116,9.60440444946289,1.9704395532608032
1711073777670969900,22.779969970703124,-0.1677439659833908,9.571907997131348,2.126227378845215
1711073777689930000,22.798929931640625,-0.13122354447841644,9.534214973449707,2.2917041778564453
1711073777708890000,22.81789013671875,-0.09888003021478653,9.488691329956055,2.4749414920806885
1711073777727850200,22.836850341796875,-0.07352065294981003,9.43343734741211,2.678661584854126
1711073777746810400,22.855810302734376,-0.062212906777858734,9.369053840637207,2.8960909843444824
1711073777765770500,22.8747705078125,-0.0732492059469223,9.298062324523926,3.1162548065185547
1711073777784730600,22.893730712890626,-0.11119773983955383,9.22484016418457,3.325711250305176
1711073777803690800,22.912690673828124,-0.17421667277812958,9.154603958129883,3.5118753910064697
1711073777822651000,22.93165087890625,-0.262330561876297,9.09209156036377,3.665438652038574
1711073777841611000,22.950611083984374,-0.3686099946498871,9.040042877197266,3.783139705657959
1711073777860571100,22.969571044921874,-0.4778469204902649,9.001198768615723,3.862703323364258
1711073777879531300,22.98853125,-0.5767418146133423,8.978035926818848,3.9029006958007812
1711073777898491400,23.007491455078124,-0.6577447652816772,8.968976974487305,3.9109089374542236
1711073777917451300,23.026451171875,-0.7133066654205322,8.971501350402832,3.895350694656372
1711073777936411400,23.045411376953126,-0.7434270977973938,8.985137939453125,3.8581087589263916
1711073777955371500,23.06437158203125,-0.7557505369186401,9.011335372924805,3.794081926345825
1711073777974331600,23.08333154296875,-0.7397077679634094,9.050345420837402,3.703303813934326
1711073777993291800,23.102291748046873,-0.6985061168670654,9.092918395996094,3.605736017227173
1711073778012252000,23.121251953125,-0.6804384589195251,9.126937866210938,3.5222713947296143
1711073778031212000,23.1402119140625,-0.7136307954788208,9.16611099243164,3.412260055541992
1711073778050172200,23.159172119140624,-0.7427104115486145,9.232144355773926,3.2227771282196045
1711073778069132300,23.17813232421875,-0.7091926336288452,9.309975624084473,2.9986319541931152
1711073778088092400,23.197092529296874,-0.6157183051109314,9.375594139099121,2.808828830718994
1711073778107052500,23.216052490234375,-0.4886658489704132,9.41789436340332,2.689769744873047
1711073778126012400,23.235012451171876,-0.3686550259590149,9.445843696594238,2.6096982955932617
1711073778144972500,23.25397265625,-0.2763051986694336,9.4746675491333,2.514899969100952
1711073778163932700,23.2729326171875,-0.19385848939418793,9.508136749267578,2.3933560848236084
1711073778182892800,23.291892822265623,-0.10511243343353271,9.541519165039062,2.2624669075012207
1711073778201853000,23.31085302734375,-0.003977028653025627,9.570834159851074,2.1376402378082275
1711073778220813000,23.32981298828125,0.11150460690259933,9.595394134521484,2.0214755535125732
1711073778239773200,23.348773193359374,0.23942476511001587,9.615912437438965,1.9097919464111328
1711073778258733300,23.3677333984375,0.3588942289352417,9.631810188293457,1.8082659244537354
1711073778277693400,23.386693359375,0.45212361216545105,9.641950607299805,1.731694221496582
1711073778296653600,23.405653564453125,0.5138278007507324,9.64803409576416,1.6798254251480103
1711073778315613700,23.42461376953125,0.5483644008636475,9.652841567993164,1.6408329010009766
1711073778334573600,23.443573486328123,0.5650196075439453,9.657736778259277,1.60600745677948
1711073778353533700,23.46253369140625,0.5778853893280029,9.66251277923584,1.572345495223999
1711073778372493800,23.481493896484373,0.5933992266654968,9.6664457321167,1.5421055555343628
1711073778391454000,23.500453857421874,0.6106653809547424,9.669034957885742,1.5189599990844727
1711073778410414000,23.5194140625,0.6258358955383301,9.670560836791992,1.502992868423462
1711073778429374200,23.538374267578124,0.6303337216377258,9.671113967895508,1.49753999710083
1711073778448334300,23.557334228515625,0.6210209727287292,9.670271873474121,1.5068405866622925
1711073778467294500,23.57629443359375,0.6010865569114685,9.66810131072998,1.5286977291107178
1711073778486254600,23.595254638671875,0.576120138168335,9.665703773498535,1.553271770477295
1711073778505214700,23.614214599609376,0.5479395389556885,9.664314270019531,1.5719945430755615
1711073778524174800,23.6331748046875,0.509852409362793,9.664392471313477,1.5842883586883545
1711073778543134700,23.652134765625,0.4474007189273834,9.666083335876465,1.5928138494491577
1711073778562094800,23.6710947265625,0.3594294488430023,9.668530464172363,1.600229263305664
1711073778581055000,23.690054931640624,0.25740936398506165,9.669157028198242,1.6160297393798828
1711073778600015000,23.70901513671875,0.14144650101661682,9.66475772857666,1.656149983406067
1711073778618975200,23.727975341796874,0.0006554059800691903,9.652327537536621,1.7329055070877075
1711073778637935400,23.746935302734375,-0.1605152040719986,9.63503360748291,1.8195428848266602
1711073778656895200,23.765895263671876,-0.3153530955314636,9.618609428405762,1.8850172758102417
1711073778675855400,23.78485546875,-0.43445560336112976,9.605508804321289,1.9276463985443115
1711073778694815500,23.8038154296875,-0.5157532691955566,9.59483814239502,1.960474967956543
1711073778713775600,23.822775634765627,-0.5489606857299805,9.586193084716797,1.9934738874435425
1711073778732735700,23.84173583984375,-0.5182436108589172,9.580772399902344,2.027465581893921
1711073778751696000,23.86069580078125,-0.42955073714256287,9.575085639953613,2.0745136737823486
1711073778770656000,23.879656005859374,-0.3161139190196991,9.563505172729492,2.1470518112182617
1711073778789616000,23.8986162109375,-0.20757222175598145,9.543279647827148,2.247910737991333
1711073778808576300,23.917576171875,-0.12165961414575577,9.517125129699707,2.362185478210449
1711073778827536400,23.936536376953125,-0.06439120322465897,9.48800277709961,2.4787180423736572
1711073778846496300,23.955496337890626,-0.031905729323625565,9.456425666809082,2.5971858501434326
1711073778865456400,23.974456298828127,-0.011833902448415756,9.421585083007812,2.7210240364074707
1711073778884416500,23.99341650390625,-0.001120954635553062,9.384048461914062,2.847808837890625
1711073778903376600,24.012376708984377,-0.005953086540102959,9.348471641540527,2.9625043869018555
1711073778922336800,24.031336669921874,-0.028535062447190285,9.320662498474121,3.0487399101257324
1711073778941297000,24.050296875,-0.06833633035421371,9.303905487060547,3.098879814147949
1711073778960257000,24.069257080078124,-0.1172405406832695,9.296107292175293,3.1207425594329834
1711073778979217000,24.088216796875,-0.1653721034526825,9.29296588897705,3.1279091835021973
1711073778998177000,24.107177001953126,-0.20613190531730652,9.2920503616333,3.1282083988189697
1711073779017137200,24.12613720703125,-0.23632770776748657,9.29332160949707,3.12229323387146
